X [s],Avanti sensor 5: EMG 5 [V],X [s],Avanti sensor 5: ACC.X 5 [g],X [s],Avanti sensor 5: ACC.Y 5 [g],X [s],Avanti sensor 5: ACC.Z 5 [g],X [s],Avanti sensor 6: EMG 6 [V],X [s],Avanti sensor 6: ACC.X 6 [g],X [s],Avanti sensor 6: ACC.Y 6 [g],X [s],Avanti sensor 6: ACC.Z 6 [g],X [s],Avanti sensor 7: EMG 7 [V],X [s],Avanti sensor 7: ACC.X 7 [g],X [s],Avanti sensor 7: ACC.Y 7 [g],X [s],Avanti sensor 7: ACC.Z 7 [g],X [s],Avanti sensor 8: EMG 8 [V],X [s],Avanti sensor 8: ACC.X 8 [g],X [s],Avanti sensor 8: ACC.Y 8 [g],X [s],Avanti sensor 8: ACC.Z 8 [g]
0,0,0,0,0,0,0,0,0,0,0,0,0,0,0,0,0,0,0,0,0,0,0,0,0,0,0,0,0,0,0,0
0.000519231,0,0.00675,0,0.00675,0,0.00675,0,0.000519231,0,0.00675,0,0.00675,0,0.00675,0,0.000519231,0,0.00675,0,0.00675,0,0.00675,0,0.000519231,0,0.00675,0,0.00675,0,0.00675,0
0.001038462,0,0.0135,0,0.0135,0,0.0135,0,0.001038462,0,0.0135,0,0.0135,0,0.0135,0,0.001038462,0,0.0135,0,0.0135,0,0.0135,0,0.001038462,0,0.0135,0,0.0135,0,0.0135,0
0.001557692,0,0.02025,0,0.02025,0,0.02025,0,0.001557692,0,0.02025,0,0.02025,0,0.02025,0,0.001557692,0,0.02025,0,0.02025,0,0.02025,0,0.001557692,0,0.02025,0,0.02025,0,0.02025,0
0.002076923,0,0.027,0,0.027,0,0.027,0,0.002076923,0,0.027,0,0.027,0,0.027,0,0.002076923,0,0.027,0,0.027,0,0.027,0,0.002076923,0,0.027,0,0.027,0,0.027,0
0.002596154,0,0.03375,0,0.03375,0,0.03375,0,0.002596154,0,0.03375,0,0.03375,0,0.03375,0,0.002596154,0,0.03375,0,0.03375,0,0.03375,0,0.002596154,0,0.03375,0,0.03375,0,0.03375,0
0.003115385,0,0.0405,0,0.0405,0,0.0405,0,0.003115385,0,0.0405,0,0.0405,0,0.0405,0,0.003115385,0,0.0405,0,0.0405,0,0.0405,0,0.003115385,0,0.0405,0,0.0405,0,0.0405,0
0.003634615,0,0.04725,0,0.04725,0,0.04725,0,0.003634615,0,0.04725,0,0.04725,0,0.04725,0,0.003634615,0,0.04725,0,0.04725,0,0.04725,0,0.003634615,0,0.04725,0,0.04725,0,0.04725,0
0.004153846,0,0.054,0,0.054,0,0.054,0,0.004153846,0,0.054,0,0.054,0,0.054,0,0.004153846,0,0.054,0,0.054,0,0.054,0,0.004153846,0,0.054,0,0.054,0,0.054,0
0.004673077,0,0.06075,0,0.06075,0,0.06075,0,0.004673077,0,0.06075,0,0.06075,0,0.06075,0,0.004673077,0,0.06075,0,0.06075,0,0.06075,0,0.004673077,0,0.06075,0,0.06075,0,0.06075,0
0.005192308,0,0.0675,0,0.0675,0,0.0675,0,0.005192308,0,0.0675,0,0.0675,0,0.0675,0,0.005192308,0,0.0675,0,0.0675,0,0.0675,0,0.005192308,0,0.0675,0,0.0675,0,0.0675,0
0.005711538,0,0.07425,0,0.07425,0,0.07425,0,0.005711538,0,0.07425,0,0.07425,0,0.07425,0,0.005711538,0,0.07425,0,0.07425,0,0.07425,0,0.005711538,0,0.07425,0,0.07425,0,0.07425,0
0.006230769,0,0.081,0,0.081,0,0.081,0,0.006230769,0,0.081,0,0.081,0,0.081,0,0.006230769,0,0.081,0,0.081,0,0.081,0,0.006230769,0,0.081,0,0.081,0,0.081,0
0.00675,0,0.08775,0,0.08775,0,0.08775,0,0.00675,0,0.08775,0,0.08775,0,0.08775,0,0.00675,0,0.08775,0,0.08775,0,0.08775,0,0.00675,0,0.08775,0,0.08775,0,0.08775,0
0.007269231,0,0.0945,-0.024170291,0.0945,-1.047379255,0.0945,-0.298100233,0.007269231,0,0.0945,0.281986713,0.0945,-0.914442658,0.0945,-0.563973427,0.007269231,0,0.0945,0.519661248,0.0945,-0.910414279,0.0945,-0.209475845,0.007269231,0,0.0945,-0.040283818,0.0945,-1.079606295,0.0945,0.124879837
0.007788462,0,0.10125,0.016113527,0.10125,-1.071549535,0.10125,-0.294071853,0.007788462,0,0.10125,0.322270542,0.10125,-0.938612938,0.10125,-0.563973427,0.007788462,0,0.10125,0.620370805,0.10125,-0.910414279,0.10125,-0.261844814,0.007788462,0,0.10125,0.088624395,0.10125,-1.123918533,0.10125,0.173220411
0.008307692,0,0.108,0.068482488,0.108,-1.099748254,0.108,-0.314213783,0.008307692,0,0.108,0.350469202,0.108,-0.966811597,0.108,-0.547859907,0.008307692,0,0.108,0.692881644,0.108,-0.906385899,0.108,-0.318242162,0.008307692,0,0.108,0.161135271,0.108,-1.144060373,0.108,0.157106891
0.008826923,0,0.11475,0.10876631,0.11475,-1.115861773,0.11475,-0.310185403,0.008826923,0,0.11475,0.362554342,0.11475,-0.966811597,0.11475,-0.539803147,0.008826923,0,0.11475,0.729137063,0.11475,-0.902357519,0.11475,-0.318242162,0.008826923,0,0.11475,0.177248791,0.11475,-1.136003613,0.11475,0.084596016
0.009346154,0,0.1215,0.11279469,0.1215,-1.115861773,0.1215,-0.314213783,0.009346154,0,0.1215,0.358525962,0.1215,-0.966811597,0.1215,-0.539803147,0.009346154,0,0.1215,0.704966784,0.1215,-0.914442658,0.1215,-0.249759674,0.009346154,0,0.1215,0.149050117,0.1215,-1.115861773,0.1215,0.028198672
0.009865385,0,0.12825,0.10876631,0.12825,-1.099748254,0.12825,-0.314213783,0.009865385,0,0.12825,0.358525962,0.12825,-0.962783217,0.12825,-0.551888287,0.009865385,0,0.12825,0.644541085,0.12825,-0.938612938,0.12825,-0.173220411,0.009865385,0,0.12825,0.064454108,0.12825,-1.095719814,0.12825,0.040283818
0.010384615,0,0.135,0.080567636,0.135,-1.079606295,0.135,-0.318242162,0.010384615,0,0.135,0.346440822,0.135,-0.974868357,0.135,-0.515632868,0.010384615,0,0.135,0.563973427,0.135,-0.962783217,0.135,-0.132936597,0.010384615,0,0.135,0.008056764,0.135,-1.079606295,0.135,0.048340581
0.010903846,0,0.14175,0.032227054,0.14175,-1.071549535,0.14175,-0.281986713,0.010903846,0,0.14175,0.298100233,0.14175,-0.986953497,0.14175,-0.487434179,0.010903846,0,0.14175,0.483405799,0.14175,-0.970839977,0.14175,-0.12085145,0.010903846,0,0.14175,-0.104737923,0.14175,-1.035294056,0.14175,0.032227054
0.011423077,0,0.1485,-0.012085145,0.1485,-1.071549535,0.1485,-0.273929954,0.011423077,0,0.1485,0.22961776,0.1485,-0.990981877,0.1485,-0.447150379,0.011423077,0,0.1485,0.40686655,0.1485,-0.966811597,0.1485,-0.088624395,0.011423077,0,0.1485,-0.193362325,0.1485,-0.999038696,0.1485,-0.032227054
0.011942308,0,0.15525,-0.028198672,0.15525,-1.071549535,0.15525,-0.290043473,0.011942308,0,0.15525,0.181277171,0.15525,-0.974868357,0.15525,-0.43909362,0.011942308,0,0.15525,0.362554342,0.15525,-0.982925117,0.15525,-0.028198672,0.011942308,0,0.15525,-0.241702899,0.15525,-0.990981877,0.15525,-0.104737923
0.012461538,0,0.162,-0.032227054,0.162,-1.063492775,0.162,-0.253788054,0.012461538,0,0.162,0.177248791,0.162,-0.970839977,0.162,-0.43909362,0.012461538,0,0.162,0.354497582,0.162,-0.990981877,0.162,-0.016113527,0.012461538,0,0.162,-0.265873194,0.162,-0.982925117,0.162,-0.132936597
0.012980769,0,0.16875,-0.024170291,0.16875,-1.063492775,0.16875,-0.245731279,0.012980769,0,0.16875,0.189333946,0.16875,-0.982925117,0.16875,-0.41895169,0.012980769,0,0.16875,0.338384062,0.16875,-0.990981877,0.16875,-0.032227054,0.012980769,0,0.16875,-0.265873194,0.16875,-0.986953497,0.16875,-0.11682307
0.0135,0,0.1755,-0.004028382,0.1755,-1.059464335,0.1755,-0.277958333,0.0135,0,0.1755,0.213504225,0.1755,-0.986953497,0.1755,-0.40686655,0.0135,0,0.1755,0.350469202,0.1755,-0.974868357,0.1755,-0.044312198,0.0135,0,0.1755,-0.23364614,0.1755,-1.003067017,0.1755,-0.096681163
0.014019231,0,0.18225,0.036255434,0.18225,-1.063492775,0.18225,-0.281986713,0.014019231,0,0.18225,0.23364614,0.18225,-0.974868357,0.18225,-0.41492331,0.014019231,0,0.18225,0.402838171,0.18225,-0.942641318,0.18225,-0.052368961,0.014019231,0,0.18225,-0.181277171,0.18225,-1.031265736,0.18225,-0.060425725
0.014538462,0,0.189,0.064454108,0.189,-1.067521214,0.189,-0.290043473,0.014538462,0,0.189,0.273929954,0.189,-0.942641318,0.189,-0.43909362,0.014538462,0,0.189,0.475349039,0.189,-0.902357519,0.189,-0.064454108,0.014538462,0,0.189,-0.140993357,0.189,-1.055436015,0.189,-0.032227054
0.015057692,0,0.19575,0.124879837,0.19575,-1.063492775,0.19575,-0.322270542,0.015057692,0,0.19575,0.342412442,0.19575,-0.930556178,0.19575,-0.41895169,0.015057692,0,0.19575,0.547859907,0.19575,-0.894300759,0.19575,-0.048340581,0.015057692,0,0.19575,-0.128908217,0.19575,-1.059464335,0.19575,-0.036255434
0.015576923,0,0.2025,0.177248791,0.2025,-1.055436015,0.2025,-0.318242162,0.015576923,0,0.2025,0.382696271,0.2025,-0.946669698,0.2025,-0.40686655,0.015576923,0,0.2025,0.624399185,0.2025,-0.898329139,0.2025,-0.036255434,0.015576923,0,0.2025,-0.153078511,0.2025,-1.039322495,0.2025,-0.072510868
0.016096154,0,0.20925,0.193362325,0.20925,-1.059464335,0.20925,-0.314213783,0.016096154,0,0.20925,0.386724651,0.20925,-0.954726458,0.20925,-0.40686655,0.016096154,0,0.20925,0.644541085,0.20925,-0.898329139,0.20925,-0.044312198,0.016096154,0,0.20925,-0.193362325,0.20925,-1.019180536,0.20925,-0.104737923
0.016615385,0,0.216,0.189333946,0.216,-1.067521214,0.216,-0.334355682,0.016615385,0,0.216,0.370611131,0.216,-0.962783217,0.216,-0.390753031,0.016615385,0,0.216,0.612314045,0.216,-0.894300759,0.216,-0.044312198,0.016615385,0,0.216,-0.213504225,0.216,-1.011123776,0.216,-0.10876631
0.017134615,0,0.22275,0.153078511,0.22275,-1.067521214,0.22275,-0.334355682,0.017134615,0,0.22275,0.338384062,0.22275,-0.950698078,0.22275,-0.402838171,0.017134615,0,0.22275,0.559945047,0.22275,-0.898329139,0.22275,-0.028198672,0.017134615,0,0.22275,-0.21753262,0.22275,-1.011123776,0.22275,-0.080567636
0.017653846,0,0.2295,0.100709543,0.2295,-1.063492775,0.2295,-0.326298922,0.017653846,0,0.2295,0.322270542,0.2295,-0.942641318,0.2295,-0.41895169,0.017653846,0,0.2295,0.507576108,0.2295,-0.898329139,0.2295,-0.012085145,0.017653846,0,0.2295,-0.209475845,0.2295,-1.019180536,0.2295,-0.040283818
0.018173077,0,0.23625,0.060425725,0.23625,-1.059464335,0.23625,-0.334355682,0.018173077,0,0.23625,0.306157023,0.23625,-0.934584558,0.23625,-0.41492331,0.018173077,0,0.23625,0.487434179,0.23625,-0.902357519,0.23625,-0.004028382,0.018173077,0,0.23625,-0.22558938,0.23625,-1.027237296,0.23625,-0.036255434
0.018692308,0,0.243,0.064454108,0.243,-1.051407576,0.243,-0.318242162,0.018692308,0,0.243,0.306157023,0.243,-0.946669698,0.243,-0.386724651,0.018692308,0,0.243,0.471320659,0.243,-0.910414279,0.243,0.012085145,0.018692308,0,0.243,-0.253788054,0.243,-1.023208976,0.243,-0.060425725
0.019211538,0,0.24975,0.076539256,0.24975,-1.051407576,0.24975,-0.302128643,0.019211538,0,0.24975,0.302128643,0.24975,-0.954726458,0.24975,-0.394781411,0.019211538,0,0.24975,0.471320659,0.24975,-0.930556178,0.24975,0.008056764,0.019211538,0,0.24975,-0.281986713,0.24975,-1.015152216,0.24975,-0.076539256
0.019730769,0,0.2565,0.072510868,0.2565,-1.051407576,0.2565,-0.294071853,0.019730769,0,0.2565,0.302128643,0.2565,-0.962783217,0.2565,-0.40686655,0.019730769,0,0.2565,0.459235519,0.2565,-0.942641318,0.2565,-0.036255434,0.019730769,0,0.2565,-0.273929954,0.2565,-0.999038696,0.2565,-0.076539256
0.02025,0,0.26325,0.060425725,0.26325,-1.047379255,0.26325,-0.286015093,0.02025,0,0.26325,0.281986713,0.26325,-0.966811597,0.26325,-0.41492331,0.02025,0,0.26325,0.43103683,0.26325,-0.938612938,0.26325,-0.048340581,0.02025,0,0.26325,-0.221561,0.26325,-0.974868357,0.26325,-0.060425725
0.020769231,0,0.27,0.028198672,0.27,-1.047379255,0.27,-0.281986713,0.020769231,0,0.27,0.265873194,0.27,-0.954726458,0.27,-0.41492331,0.020769231,0,0.27,0.41089493,0.27,-0.926527798,0.27,-0.052368961,0.020769231,0,0.27,-0.161135271,0.27,-0.986953497,0.27,-0.040283818
0.021288462,0,0.27675,0.012085145,0.27675,-1.035294056,0.27675,-0.277958333,0.021288462,0,0.27675,0.261844814,0.27675,-0.934584558,0.27675,-0.42700845,0.021288462,0,0.27675,0.41492331,0.27675,-0.926527798,0.27675,-0.064454108,0.021288462,0,0.27675,-0.12085145,0.27675,-1.015152216,0.27675,-0.032227054
0.021807692,0,0.2835,0.020141909,0.2835,-1.027237296,0.2835,-0.261844814,0.021807692,0,0.2835,0.269901574,0.2835,-0.934584558,0.2835,-0.42298007,0.021807692,0,0.2835,0.443122,0.2835,-0.922499418,0.2835,-0.072510868,0.021807692,0,0.2835,-0.10876631,0.2835,-1.031265736,0.2835,-0.048340581
0.022326923,0,0.29025,0.048340581,0.29025,-1.027237296,0.29025,-0.265873194,0.022326923,0,0.29025,0.281986713,0.29025,-0.954726458,0.29025,-0.398809791,0.022326923,0,0.29025,0.459235519,0.29025,-0.922499418,0.29025,-0.076539256,0.022326923,0,0.29025,-0.128908217,0.29025,-1.027237296,0.29025,-0.068482488
0.022846154,0,0.297,0.076539256,0.297,-1.031265736,0.297,-0.286015093,0.022846154,0,0.297,0.290043473,0.297,-0.958754838,0.297,-0.398809791,0.022846154,0,0.297,0.467292279,0.297,-0.942641318,0.297,-0.072510868,0.022846154,0,0.297,-0.149050117,0.297,-1.027237296,0.297,-0.072510868
0.023365385,0,0.30375,0.056397345,0.30375,-1.039322495,0.30375,-0.290043473,0.023365385,0,0.30375,0.294071853,0.30375,-0.958754838,0.30375,-0.43103683,0.023365385,0,0.30375,0.463263899,0.30375,-0.954726458,0.30375,-0.072510868,0.023365385,0,0.30375,-0.177248791,0.30375,-1.007095456,0.30375,-0.068482488
0.023884615,0,0.3105,0.012085145,0.3105,-1.043350816,0.3105,-0.273929954,0.023884615,0,0.3105,0.294071853,0.3105,-0.962783217,0.3105,-0.443122,0.023884615,0,0.3105,0.43506524,0.3105,-0.962783217,0.3105,-0.076539256,0.023884615,0,0.3105,-0.181277171,0.3105,-0.995010257,0.3105,-0.052368961
0.024403846,0,0.31725,-0.012085145,0.31725,-1.043350816,0.31725,-0.265873194,0.024403846,0,0.31725,0.273929954,0.31725,-0.970839977,0.31725,-0.42298007,0.024403846,0,0.31725,0.402838171,0.31725,-0.962783217,0.31725,-0.076539256,0.024403846,0,0.31725,-0.165163651,0.31725,-0.999038696,0.31725,-0.044312198
0.024923077,0,0.324,-0.024170291,0.324,-1.039322495,0.324,-0.257816434,0.024923077,0,0.324,0.241702899,0.324,-0.974868357,0.324,-0.41492331,0.024923077,0,0.324,0.374639511,0.324,-0.966811597,0.324,-0.072510868,0.024923077,0,0.324,-0.149050117,0.324,-1.015152216,0.324,-0.044312198
0.025442308,0,0.33075,-0.020141909,0.33075,-1.047379255,0.33075,-0.253788054,0.025442308,0,0.33075,0.22558938,0.33075,-0.966811597,0.33075,-0.43506524,0.025442308,0,0.33075,0.370611131,0.33075,-0.974868357,0.33075,-0.088624395,0.025442308,0,0.33075,-0.128908217,0.33075,-1.027237296,0.33075,-0.040283818
0.025961538,0,0.3375,-0.024170291,0.3375,-1.047379255,0.3375,-0.257816434,0.025961538,0,0.3375,0.23364614,0.3375,-0.974868357,0.3375,-0.43506524,0.025961538,0,0.3375,0.378667891,0.3375,-0.978896737,0.3375,-0.076539256,0.025961538,0,0.3375,-0.124879837,0.3375,-1.035294056,0.3375,-0.048340581
0.026480769,0,0.34425,-0.016113527,0.34425,-1.047379255,0.34425,-0.261844814,0.026480769,0,0.34425,0.257816434,0.34425,-0.982925117,0.34425,-0.43103683,0.026480769,0,0.34425,0.386724651,0.34425,-0.990981877,0.34425,-0.064454108,0.026480769,0,0.34425,-0.145021737,0.34425,-1.023208976,0.34425,-0.068482488
0.027,0,0.351,-0.012085145,0.351,-1.047379255,0.351,-0.261844814,0.027,0,0.351,0.269901574,0.351,-0.990981877,0.351,-0.43909362,0.027,0,0.351,0.390753031,0.351,-0.999038696,0.351,-0.072510868,0.027,0,0.351,-0.157106891,0.351,-1.007095456,0.351,-0.072510868
0.027519231,0,0.35775,-0.024170291,0.35775,-1.051407576,0.35775,-0.257816434,0.027519231,0,0.35775,0.253788054,0.35775,-0.995010257,0.35775,-0.443122,0.027519231,0,0.35775,0.390753031,0.35775,-0.995010257,0.35775,-0.100709543,0.027519231,0,0.35775,-0.140993357,0.35775,-1.007095456,0.35775,-0.036255434
0.028038462,0,0.3645,-0.024170291,0.3645,-1.059464335,0.3645,-0.249759674,0.028038462,0,0.3645,0.245731279,0.3645,-0.995010257,0.3645,-0.443122,0.028038462,0,0.3645,0.40686655,0.3645,-0.978896737,0.3645,-0.10876631,0.028038462,0,0.3645,-0.11682307,0.3645,-1.035294056,0.3645,-0.016113527
0.028557692,0,0.37125,-0.020141909,0.37125,-1.059464335,0.37125,-0.261844814,0.028557692,0,0.37125,0.245731279,0.37125,-0.978896737,0.37125,-0.43909362,0.028557692,0,0.37125,0.42700845,0.37125,-0.974868357,0.37125,-0.092652783,0.028557692,0,0.37125,-0.104737923,0.37125,-1.055436015,0.37125,-0.020141909
0.029076923,0,0.378,0.012085145,0.378,-1.051407576,0.378,-0.269901574,0.029076923,0,0.378,0.269901574,0.378,-0.970839977,0.378,-0.447150379,0.029076923,0,0.378,0.43909362,0.378,-0.970839977,0.378,-0.084596016,0.029076923,0,0.378,-0.10876631,0.378,-1.055436015,0.378,-0.032227054
0.029596154,0,0.38475,0.048340581,0.38475,-1.047379255,0.38475,-0.286015093,0.029596154,0,0.38475,0.302128643,0.38475,-0.974868357,0.38475,-0.41895169,0.029596154,0,0.38475,0.467292279,0.38475,-0.966811597,0.38475,-0.084596016,0.029596154,0,0.38475,-0.124879837,0.38475,-1.039322495,0.38475,-0.056397345
0.030115385,0,0.3915,0.064454108,0.3915,-1.047379255,0.3915,-0.290043473,0.030115385,0,0.3915,0.314213783,0.3915,-0.986953497,0.3915,-0.42298007,0.030115385,0,0.3915,0.491462559,0.3915,-0.966811597,0.3915,-0.076539256,0.030115385,0,0.3915,-0.136964977,0.3915,-1.019180536,0.3915,-0.064454108
0.030634615,0,0.39825,0.064454108,0.39825,-1.059464335,0.39825,-0.286015093,0.030634615,0,0.39825,0.310185403,0.39825,-0.978896737,0.39825,-0.43909362,0.030634615,0,0.39825,0.499519348,0.39825,-0.966811597,0.39825,-0.072510868,0.030634615,0,0.39825,-0.136964977,0.39825,-1.023208976,0.39825,-0.048340581
0.031153846,0,0.405,0.056397345,0.405,-1.063492775,0.405,-0.290043473,0.031153846,0,0.405,0.310185403,0.405,-0.974868357,0.405,-0.42700845,0.031153846,0,0.405,0.487434179,0.405,-0.958754838,0.405,-0.080567636,0.031153846,0,0.405,-0.140993357,0.405,-1.031265736,0.405,-0.032227054
0.031673077,0,0.41175,0.052368961,0.41175,-1.055436015,0.41175,-0.294071853,0.031673077,0,0.41175,0.302128643,0.41175,-0.982925117,0.41175,-0.41089493,0.031673077,0,0.41175,0.479377419,0.41175,-0.962783217,0.41175,-0.068482488,0.031673077,0,0.41175,-0.157106891,0.41175,-1.031265736,0.41175,-0.040283818
0.032192308,0,0.4185,0.044312198,0.4185,-1.051407576,0.4185,-0.290043473,0.032192308,0,0.4185,0.290043473,0.4185,-0.978896737,0.4185,-0.43506524,0.032192308,0,0.4185,0.471320659,0.4185,-0.970839977,0.4185,-0.068482488,0.032192308,0,0.4185,-0.173220411,0.4185,-1.019180536,0.4185,-0.048340581
0.032711538,0,0.42525,0.024170291,0.42525,-1.051407576,0.42525,-0.273929954,0.032711538,0,0.42525,0.294071853,0.42525,-0.974868357,0.42525,-0.43506524,0.032711538,0,0.42525,0.43506524,0.42525,-0.974868357,0.42525,-0.080567636,0.032711538,0,0.42525,-0.173220411,0.42525,-1.007095456,0.42525,-0.044312198
0.033230769,0,0.432,0,0.432,-1.047379255,0.432,-0.277958333,0.033230769,0,0.432,0.286015093,0.432,-0.974868357,0.432,-0.42700845,0.033230769,0,0.432,0.42298007,0.432,-0.966811597,0.432,-0.084596016,0.033230769,0,0.432,-0.153078511,0.432,-1.007095456,0.432,-0.036255434
0.03375,0,0.43875,0,0.43875,-1.047379255,0.43875,-0.277958333,0.03375,0,0.43875,0.273929954,0.43875,-0.970839977,0.43875,-0.42298007,0.03375,0,0.43875,0.42700845,0.43875,-0.962783217,0.43875,-0.076539256,0.03375,0,0.43875,-0.132936597,0.43875,-1.015152216,0.43875,-0.040283818
0.034269231,0,0.4455,0.012085145,0.4455,-1.043350816,0.4455,-0.286015093,0.034269231,0,0.4455,0.281986713,0.4455,-0.966811597,0.4455,-0.42298007,0.034269231,0,0.4455,0.443122,0.4455,-0.958754838,0.4455,-0.072510868,0.034269231,0,0.4455,-0.140993357,0.4455,-1.027237296,0.4455,-0.044312198
0.034788462,0,0.45225,0.032227054,0.45225,-1.043350816,0.45225,-0.281986713,0.034788462,0,0.45225,0.302128643,0.45225,-0.978896737,0.45225,-0.41089493,0.034788462,0,0.45225,0.459235519,0.45225,-0.958754838,0.45225,-0.072510868,0.034788462,0,0.45225,-0.161135271,0.45225,-1.031265736,0.45225,-0.048340581
0.035307692,0,0.459,0.064454108,0.459,-1.047379255,0.459,-0.281986713,0.035307692,0,0.459,0.310185403,0.459,-0.982925117,0.459,-0.398809791,0.035307692,0,0.459,0.479377419,0.459,-0.962783217,0.459,-0.064454108,0.035307692,0,0.459,-0.169192031,0.459,-1.023208976,0.459,-0.056397345
0.035826923,0,0.46575,0.072510868,0.46575,-1.051407576,0.46575,-0.294071853,0.035826923,0,0.46575,0.310185403,0.46575,-0.990981877,0.46575,-0.402838171,0.035826923,0,0.46575,0.475349039,0.46575,-0.970839977,0.46575,-0.052368961,0.035826923,0,0.46575,-0.173220411,0.46575,-1.011123776,0.46575,-0.052368961
0.036346154,0,0.4725,0.060425725,0.4725,-1.055436015,0.4725,-0.302128643,0.036346154,0,0.4725,0.294071853,0.4725,-0.990981877,0.4725,-0.42298007,0.036346154,0,0.4725,0.463263899,0.4725,-0.978896737,0.4725,-0.056397345,0.036346154,0,0.4725,-0.165163651,0.4725,-1.011123776,0.4725,-0.048340581
0.036865385,0,0.47925,0.024170291,0.47925,-1.063492775,0.47925,-0.306157023,0.036865385,0,0.47925,0.294071853,0.47925,-0.995010257,0.47925,-0.42298007,0.036865385,0,0.47925,0.459235519,0.47925,-0.982925117,0.47925,-0.072510868,0.036865385,0,0.47925,-0.165163651,0.47925,-1.015152216,0.47925,-0.040283818
0.037384615,0,0.486,0.012085145,0.486,-1.071549535,0.486,-0.290043473,0.037384615,0,0.486,0.294071853,0.486,-1.003067017,0.486,-0.41895169,0.037384615,0,0.486,0.463263899,0.486,-0.986953497,0.486,-0.072510868,0.037384615,0,0.486,-0.177248791,0.486,-1.023208976,0.486,-0.052368961
0.037903846,0,0.49275,0.012085145,0.49275,-1.067521214,0.49275,-0.281986713,0.037903846,0,0.49275,0.298100233,0.49275,-1.003067017,0.49275,-0.42298007,0.037903846,0,0.49275,0.463263899,0.49275,-0.990981877,0.49275,-0.080567636,0.037903846,0,0.49275,-0.193362325,0.49275,-1.035294056,0.49275,-0.044312198
0.038423077,0,0.4995,0.020141909,0.4995,-1.067521214,0.4995,-0.302128643,0.038423077,0,0.4995,0.310185403,0.4995,-0.999038696,0.4995,-0.43103683,0.038423077,0,0.4995,0.459235519,0.4995,-0.982925117,0.4995,-0.096681163,0.038423077,0,0.4995,-0.197390705,0.4995,-1.039322495,0.4995,-0.024170291
0.038942308,0,0.50625,0.016113527,0.50625,-1.059464335,0.50625,-0.314213783,0.038942308,0,0.50625,0.314213783,0.50625,-0.995010257,0.50625,-0.43506524,0.038942308,0,0.50625,0.459235519,0.50625,-0.982925117,0.50625,-0.072510868,0.038942308,0,0.50625,-0.177248791,0.50625,-1.027237296,0.50625,-0.016113527
0.039461538,0,0.513,0,0.513,-1.055436015,0.513,-0.306157023,0.039461538,0,0.513,0.306157023,0.513,-0.995010257,0.513,-0.42700845,0.039461538,0,0.513,0.451178759,0.513,-0.982925117,0.513,-0.076539256,0.039461538,0,0.513,-0.161135271,0.513,-1.007095456,0.513,-0.024170291
0.039980769,0,0.51975,-0.008056764,0.51975,-1.051407576,0.51975,-0.294071853,0.039980769,0,0.51975,0.290043473,0.51975,-0.990981877,0.51975,-0.43506524,0.039980769,0,0.51975,0.43909362,0.51975,-0.982925117,0.51975,-0.096681163,0.039980769,0,0.51975,-0.165163651,0.51975,-0.990981877,0.51975,-0.028198672
0.0405,0,0.5265,-0.016113527,0.5265,-1.055436015,0.5265,-0.290043473,0.0405,0,0.5265,0.281986713,0.5265,-0.986953497,0.5265,-0.42700845,0.0405,0,0.5265,0.43909362,0.5265,-0.986953497,0.5265,-0.10876631,0.0405,0,0.5265,-0.169192031,0.5265,-0.986953497,0.5265,-0.016113527
0.041019231,0,0.53325,-0.020141909,0.53325,-1.051407576,0.53325,-0.290043473,0.041019231,0,0.53325,0.281986713,0.53325,-0.999038696,0.53325,-0.42298007,0.041019231,0,0.53325,0.43103683,0.53325,-0.990981877,0.53325,-0.104737923,0.041019231,0,0.53325,-0.173220411,0.53325,-0.995010257,0.53325,-0.012085145
0.041538462,0,0.54,-0.020141909,0.54,-1.047379255,0.54,-0.277958333,0.041538462,0,0.54,0.277958333,0.54,-0.995010257,0.54,-0.42700845,0.041538462,0,0.54,0.40686655,0.54,-0.990981877,0.54,-0.100709543,0.041538462,0,0.54,-0.177248791,0.54,-0.999038696,0.54,-0.024170291
0.042057692,0,0.54675,-0.012085145,0.54675,-1.047379255,0.54675,-0.261844814,0.042057692,0,0.54675,0.257816434,0.54675,-0.990981877,0.54675,-0.43103683,0.042057692,0,0.54675,0.398809791,0.54675,-0.986953497,0.54675,-0.088624395,0.042057692,0,0.54675,-0.161135271,0.54675,-0.999038696,0.54675,-0.040283818
0.042576923,0,0.5535,-0.016113527,0.5535,-1.047379255,0.5535,-0.265873194,0.042576923,0,0.5535,0.257816434,0.5535,-0.999038696,0.5535,-0.41895169,0.042576923,0,0.5535,0.398809791,0.5535,-0.986953497,0.5535,-0.076539256,0.042576923,0,0.5535,-0.136964977,0.5535,-0.995010257,0.5535,-0.052368961
0.043096154,0,0.56025,-0.008056764,0.56025,-1.047379255,0.56025,-0.265873194,0.043096154,0,0.56025,0.265873194,0.56025,-0.999038696,0.56025,-0.41895169,0.043096154,0,0.56025,0.394781411,0.56025,-0.990981877,0.56025,-0.080567636,0.043096154,0,0.56025,-0.136964977,0.56025,-0.995010257,0.56025,-0.060425725
0.043615385,0,0.567,0,0.567,-1.047379255,0.567,-0.265873194,0.043615385,0,0.567,0.273929954,0.567,-1.011123776,0.567,-0.394781411,0.043615385,0,0.567,0.40686655,0.567,-0.995010257,0.567,-0.064454108,0.043615385,0,0.567,-0.153078511,0.567,-0.999038696,0.567,-0.060425725
0.044134615,0,0.57375,0.008056764,0.57375,-1.055436015,0.57375,-0.277958333,0.044134615,0,0.57375,0.273929954,0.57375,-1.015152216,0.57375,-0.390753031,0.044134615,0,0.57375,0.41089493,0.57375,-0.999038696,0.57375,-0.040283818,0.044134615,0,0.57375,-0.177248791,0.57375,-1.011123776,0.57375,-0.060425725
0.044653846,0,0.5805,0.016113527,0.5805,-1.055436015,0.5805,-0.277958333,0.044653846,0,0.5805,0.273929954,0.5805,-1.023208976,0.5805,-0.398809791,0.044653846,0,0.5805,0.41492331,0.5805,-1.007095456,0.5805,-0.048340581,0.044653846,0,0.5805,-0.197390705,0.5805,-1.011123776,0.5805,-0.056397345
0.045173077,0,0.58725,0.016113527,0.58725,-1.059464335,0.58725,-0.249759674,0.045173077,0,0.58725,0.286015093,0.58725,-1.023208976,0.58725,-0.398809791,0.045173077,0,0.58725,0.390753031,0.58725,-1.007095456,0.58725,-0.048340581,0.045173077,0,0.58725,-0.201419085,0.58725,-1.007095456,0.58725,-0.060425725
0.045692308,0,0.594,-0.004028382,0.594,-1.059464335,0.594,-0.245731279,0.045692308,0,0.594,0.273929954,0.594,-1.015152216,0.594,-0.390753031,0.045692308,0,0.594,0.366582751,0.594,-1.003067017,0.594,-0.032227054,0.045692308,0,0.594,-0.189333946,0.594,-1.007095456,0.594,-0.072510868
0.046211538,0,0.60075,0.012085145,0.60075,-1.063492775,0.60075,-0.257816434,0.046211538,0,0.60075,0.269901574,0.60075,-1.023208976,0.60075,-0.362554342,0.046211538,0,0.60075,0.362554342,0.60075,-1.003067017,0.60075,-0.028198672,0.046211538,0,0.60075,-0.177248791,0.60075,-1.015152216,0.60075,-0.096681163
0.046730769,0,0.6075,0.040283818,0.6075,-1.063492775,0.6075,-0.257816434,0.046730769,0,0.6075,0.269901574,0.6075,-1.035294056,0.6075,-0.346440822,0.046730769,0,0.6075,0.390753031,0.6075,-0.999038696,0.6075,-0.012085145,0.046730769,0,0.6075,-0.185305566,0.6075,-1.015152216,0.6075,-0.11279469
0.04725,0,0.61425,0.080567636,0.61425,-1.063492775,0.61425,-0.237674519,0.04725,0,0.61425,0.277958333,0.61425,-1.027237296,0.61425,-0.334355682,0.04725,0,0.61425,0.402838171,0.61425,-0.990981877,0.61425,0.020141909,0.04725,0,0.61425,-0.197390705,0.61425,-1.023208976,0.61425,-0.12085145
0.047769231,0,0.621,0.100709543,0.621,-1.067521214,0.621,-0.241702899,0.047769231,0,0.621,0.306157023,0.621,-1.023208976,0.621,-0.318242162,0.047769231,0,0.621,0.41895169,0.621,-0.978896737,0.621,0.056397345,0.047769231,0,0.621,-0.201419085,0.621,-1.019180536,0.621,-0.128908217
0.048288462,0,0.62775,0.140993357,0.62775,-1.075577974,0.62775,-0.286015093,0.048288462,0,0.62775,0.334355682,0.62775,-1.031265736,0.62775,-0.298100233,0.048288462,0,0.62775,0.443122,0.62775,-0.978896737,0.62775,0.068482488,0.048288462,0,0.62775,-0.22961776,0.62775,-1.019180536,0.62775,-0.149050117
0.048807692,0,0.6345,0.177248791,0.6345,-1.079606295,0.6345,-0.314213783,0.048807692,0,0.6345,0.354497582,0.6345,-1.051407576,0.6345,-0.302128643,0.048807692,0,0.6345,0.483405799,0.6345,-0.986953497,0.6345,0.080567636,0.048807692,0,0.6345,-0.269901574,0.6345,-1.015152216,0.6345,-0.153078511
0.049326923,0,0.64125,0.181277171,0.64125,-1.087663054,0.64125,-0.302128643,0.049326923,0,0.64125,0.358525962,0.64125,-1.055436015,0.64125,-0.306157023,0.049326923,0,0.64125,0.503547728,0.64125,-0.995010257,0.64125,0.076539256,0.049326923,0,0.64125,-0.322270542,0.64125,-1.023208976,0.64125,-0.145021737
0.049846154,0,0.648,0.161135271,0.648,-1.103776574,0.648,-0.286015093,0.049846154,0,0.648,0.350469202,0.648,-1.051407576,0.648,-0.322270542,0.049846154,0,0.648,0.487434179,0.648,-0.999038696,0.648,0.076539256,0.049846154,0,0.648,-0.354497582,0.648,-1.035294056,0.648,-0.136964977
0.050365385,0,0.65475,0.136964977,0.65475,-1.115861773,0.65475,-0.290043473,0.050365385,0,0.65475,0.346440822,0.65475,-1.055436015,0.65475,-0.318242162,0.050365385,0,0.65475,0.451178759,0.65475,-1.007095456,0.65475,0.080567636,0.050365385,0,0.65475,-0.358525962,0.65475,-1.051407576,0.65475,-0.136964977
0.050884615,0,0.6615,0.140993357,0.6615,-1.119890094,0.6615,-0.294071853,0.050884615,0,0.6615,0.350469202,0.6615,-1.059464335,0.6615,-0.310185403,0.050884615,0,0.6615,0.463263899,0.6615,-1.003067017,0.6615,0.096681163,0.050884615,0,0.6615,-0.338384062,0.6615,-1.067521214,0.6615,-0.145021737
0.051403846,0,0.66825,0.161135271,0.66825,-1.119890094,0.66825,-0.286015093,0.051403846,0,0.66825,0.354497582,0.66825,-1.067521214,0.66825,-0.306157023,0.051403846,0,0.66825,0.467292279,0.66825,-1.003067017,0.66825,0.100709543,0.051403846,0,0.66825,-0.306157023,0.66825,-1.071549535,0.66825,-0.161135271
0.051923077,0,0.675,0.181277171,0.675,-1.119890094,0.675,-0.286015093,0.051923077,0,0.675,0.354497582,0.675,-1.071549535,0.675,-0.302128643,0.051923077,0,0.675,0.479377419,0.675,-1.007095456,0.675,0.11279469,0.051923077,0,0.675,-0.302128643,0.675,-1.071549535,0.675,-0.173220411
0.052442308,0,0.68175,0.189333946,0.68175,-1.115861773,0.68175,-0.290043473,0.052442308,0,0.68175,0.350469202,0.68175,-1.067521214,0.68175,-0.326298922,0.052442308,0,0.68175,0.467292279,0.68175,-1.011123776,0.68175,0.11279469,0.052442308,0,0.68175,-0.290043473,0.68175,-1.067521214,0.68175,-0.177248791
0.052961538,0,0.6885,0.189333946,0.6885,-1.123918533,0.6885,-0.286015093,0.052961538,0,0.6885,0.346440822,0.6885,-1.067521214,0.6885,-0.342412442,0.052961538,0,0.6885,0.455207139,0.6885,-1.007095456,0.6885,0.11682307,0.052961538,0,0.6885,-0.286015093,0.6885,-1.075577974,0.6885,-0.173220411
0.053480769,0,0.69525,0.181277171,0.69525,-1.136003613,0.69525,-0.286015093,0.053480769,0,0.69525,0.362554342,0.69525,-1.059464335,0.69525,-0.346440822,0.053480769,0,0.69525,0.463263899,0.69525,-1.003067017,0.69525,0.11279469,0.053480769,0,0.69525,-0.281986713,0.69525,-1.095719814,0.69525,-0.165163651
0.054,0,0.702,0.185305566,0.702,-1.144060373,0.702,-0.290043473,0.054,0,0.702,0.382696271,0.702,-1.067521214,0.702,-0.358525962,0.054,0,0.702,0.475349039,0.702,-1.007095456,0.702,0.10876631,0.054,0,0.702,-0.277958333,0.702,-1.107805014,0.702,-0.161135271
0.054519231,0,0.70875,0.189333946,0.70875,-1.148088813,0.70875,-0.290043473,0.054519231,0,0.70875,0.390753031,0.70875,-1.071549535,0.70875,-0.358525962,0.054519231,0,0.70875,0.503547728,0.70875,-1.011123776,0.70875,0.096681163,0.054519231,0,0.70875,-0.277958333,0.70875,-1.123918533,0.70875,-0.153078511
0.055038462,0,0.7155,0.201419085,0.7155,-1.164202332,0.7155,-0.286015093,0.055038462,0,0.7155,0.390753031,0.7155,-1.095719814,0.7155,-0.338384062,0.055038462,0,0.7155,0.523689628,0.7155,-1.031265736,0.7155,0.096681163,0.055038462,0,0.7155,-0.265873194,0.7155,-1.140032053,0.7155,-0.153078511
0.055557692,0,0.72225,0.209475845,0.72225,-1.192400932,0.72225,-0.281986713,0.055557692,0,0.72225,0.374639511,0.72225,-1.131975293,0.72225,-0.314213783,0.055557692,0,0.72225,0.523689628,0.72225,-1.067521214,0.72225,0.128908217,0.055557692,0,0.72225,-0.245731279,0.72225,-1.156145573,0.72225,-0.185305566
0.056076923,0,0.729,0.23364614,0.729,-1.216571331,0.729,-0.265873194,0.056076923,0,0.729,0.358525962,0.729,-1.172259092,0.729,-0.294071853,0.056076923,0,0.729,0.491462559,0.729,-1.095719814,0.729,0.169192031,0.056076923,0,0.729,-0.22961776,0.729,-1.164202332,0.729,-0.22961776
0.056596154,0,0.73575,0.265873194,0.73575,-1.244769931,0.73575,-0.23364614,0.056596154,0,0.73575,0.342412442,0.73575,-1.184344172,0.73575,-0.286015093,0.056596154,0,0.73575,0.455207139,0.73575,-1.103776574,0.73575,0.205447465,0.056596154,0,0.73575,-0.241702899,0.73575,-1.172259092,0.73575,-0.269901574
0.057115385,0,0.7425,0.281986713,0.7425,-1.232684851,0.7425,-0.241702899,0.057115385,0,0.7425,0.350469202,0.7425,-1.180315852,0.7425,-0.302128643,0.057115385,0,0.7425,0.451178759,0.7425,-1.099748254,0.7425,0.213504225,0.057115385,0,0.7425,-0.269901574,0.7425,-1.184344172,0.7425,-0.294071853
0.057634615,0,0.74925,0.269901574,0.74925,-1.228656411,0.74925,-0.273929954,0.057634615,0,0.74925,0.374639511,0.74925,-1.172259092,0.74925,-0.281986713,0.057634615,0,0.74925,0.463263899,0.74925,-1.095719814,0.74925,0.201419085,0.057634615,0,0.74925,-0.306157023,0.74925,-1.216571331,0.74925,-0.294071853
0.058153846,0,0.756,0.249759674,0.756,-1.224628091,0.756,-0.273929954,0.058153846,0,0.756,0.338384062,0.756,-1.196429372,0.756,-0.221561,0.058153846,0,0.756,0.455207139,0.756,-1.095719814,0.756,0.193362325,0.058153846,0,0.756,-0.330327302,0.756,-1.236713171,0.756,-0.298100233
0.058673077,0,0.76275,0.245731279,0.76275,-1.232684851,0.76275,-0.201419085,0.058673077,0,0.76275,0.281986713,0.76275,-1.184344172,0.76275,-0.22558938,0.058673077,0,0.76275,0.40686655,0.76275,-1.091691494,0.76275,0.241702899,0.058673077,0,0.76275,-0.334355682,0.76275,-1.208514571,0.76275,-0.310185403
0.059192308,0,0.7695,0.221561,0.7695,-1.192400932,0.7695,-0.241702899,0.059192308,0,0.7695,0.310185403,0.7695,-1.119890094,0.7695,-0.277958333,0.059192308,0,0.7695,0.346440822,0.7695,-1.067521214,0.7695,0.265873194,0.059192308,0,0.7695,-0.338384062,0.7695,-1.148088813,0.7695,-0.310185403
0.059711538,0,0.77625,0.205447465,0.77625,-1.144060373,0.77625,-0.294071853,0.059711538,0,0.77625,0.334355682,0.77625,-1.083634734,0.77625,-0.294071853,0.059711538,0,0.77625,0.338384062,0.77625,-1.011123776,0.77625,0.245731279,0.059711538,0,0.77625,-0.374639511,0.77625,-1.103776574,0.77625,-0.286015093
0.060230769,0,0.783,0.205447465,0.783,-1.087663054,0.783,-0.281986713,0.060230769,0,0.783,0.354497582,0.783,-1.015152216,0.783,-0.302128643,0.060230769,0,0.783,0.362554342,0.783,-0.954726458,0.783,0.22558938,0.060230769,0,0.783,-0.402838171,0.783,-1.099748254,0.783,-0.265873194
0.06075,0,0.78975,0.205447465,0.78975,-1.039322495,0.78975,-0.310185403,0.06075,0,0.78975,0.374639511,0.78975,-0.990981877,0.78975,-0.294071853,0.06075,0,0.78975,0.41492331,0.78975,-0.918471038,0.78975,0.209475845,0.06075,0,0.78975,-0.467292279,0.78975,-1.115861773,0.78975,-0.213504225
0.061269231,0,0.7965,0.221561,0.7965,-1.023208976,0.7965,-0.358525962,0.061269231,0,0.7965,0.459235519,0.7965,-0.970839977,0.7965,-0.322270542,0.061269231,0,0.7965,0.511604488,0.7965,-0.886243999,0.7965,0.201419085,0.061269231,0,0.7965,-0.523689628,0.7965,-1.119890094,0.7965,-0.153078511
0.061788462,0,0.80325,0.286015093,0.80325,-0.986953497,0.80325,-0.455207139,0.061788462,0,0.80325,0.572030187,0.80325,-0.914442658,0.80325,-0.370611131,0.061788462,0,0.80325,0.604257286,0.80325,-0.825818241,0.80325,0.169192031,0.061788462,0,0.80325,-0.539803147,0.80325,-1.099748254,0.80325,-0.11279469
0.062307692,0,0.81,0.306157023,0.81,-0.954726458,0.81,-0.447150379,0.062307692,0,0.81,0.664682984,0.81,-0.84193176,0.81,-0.398809791,0.062307692,0,0.81,0.656626225,0.81,-0.753307402,0.81,0.136964977,0.062307692,0,0.81,-0.531746387,0.81,-1.075577974,0.81,-0.080567636
0.062826923,0,0.81675,0.306157023,0.81675,-0.918471038,0.81675,-0.43909362,0.062826923,0,0.81675,0.713023543,0.81675,-0.765392542,0.81675,-0.42298007,0.062826923,0,0.81675,0.672739744,0.81675,-0.717051923,0.81675,0.128908217,0.062826923,0,0.81675,-0.483405799,0.81675,-1.059464335,0.81675,-0.040283818
0.063346154,0,0.8235,0.318242162,0.8235,-0.870130479,0.8235,-0.507576108,0.063346154,0,0.8235,0.741222262,0.8235,-0.692881644,0.8235,-0.443122,0.063346154,0,0.8235,0.708995163,0.8235,-0.644541085,0.8235,0.11682307,0.063346154,0,0.8235,-0.402838171,0.8235,-1.043350816,0.8235,0
0.063865385,0,0.83025,0.346440822,0.83025,-0.825818241,0.83025,-0.580086946,0.063865385,0,0.83025,0.777477682,0.83025,-0.644541085,0.83025,-0.443122,0.063865385,0,0.83025,0.765392542,0.83025,-0.588143706,0.83025,0.100709543,0.063865385,0,0.83025,-0.310185403,0.83025,-1.019180536,0.83025,0.028198672
0.064384615,0,0.837,0.378667891,0.837,-0.781506062,0.837,-0.592172086,0.064384615,0,0.837,0.813733101,0.837,-0.616342425,0.837,-0.459235519,0.064384615,0,0.837,0.821789861,0.837,-0.551888287,0.837,0.080567636,0.064384615,0,0.837,-0.253788054,0.837,-0.982925117,0.837,0.052368961
0.064903846,0,0.84375,0.40686655,0.84375,-0.757335782,0.84375,-0.600228906,0.064903846,0,0.84375,0.825818241,0.84375,-0.612314045,0.84375,-0.463263899,0.064903846,0,0.84375,0.870130479,0.84375,-0.527718008,0.84375,0.068482488,0.064903846,0,0.84375,-0.249759674,0.84375,-0.958754838,0.84375,0.052368961
0.065423077,0,0.8505,0.443122,0.8505,-0.745250642,0.8505,-0.628427565,0.065423077,0,0.8505,0.83790338,0.8505,-0.628427565,0.8505,-0.42700845,0.065423077,0,0.8505,0.902357519,0.8505,-0.527718008,0.8505,0.056397345,0.065423077,0,0.8505,-0.286015093,0.8505,-0.946669698,0.8505,0.048340581
0.065942308,0,0.85725,0.471320659,0.85725,-0.741222262,0.85725,-0.648569465,0.065942308,0,0.85725,0.84596014,0.85725,-0.636484325,0.85725,-0.402838171,0.065942308,0,0.85725,0.910414279,0.85725,-0.539803147,0.85725,0.068482488,0.065942308,0,0.85725,-0.330327302,0.85725,-0.934584558,0.85725,0.032227054
0.066461538,0,0.864,0.467292279,0.864,-0.765392542,0.864,-0.616342425,0.066461538,0,0.864,0.829846621,0.864,-0.640512705,0.864,-0.41089493,0.066461538,0,0.864,0.898329139,0.864,-0.563973427,0.864,0.092652783,0.066461538,0,0.864,-0.346440822,0.864,-0.926527798,0.864,0.024170291
0.066980769,0,0.87075,0.447150379,0.87075,-0.777477682,0.87075,-0.563973427,0.066980769,0,0.87075,0.757335782,0.87075,-0.660654604,0.87075,-0.40686655,0.066980769,0,0.87075,0.85804528,0.87075,-0.580086946,0.87075,0.092652783,0.066980769,0,0.87075,-0.374639511,0.87075,-0.910414279,0.87075,-0.012085145
0.0675,0,0.8775,0.42298007,0.8775,-0.797619581,0.8775,-0.499519348,0.0675,0,0.8775,0.656626225,0.8775,-0.664682984,0.8775,-0.394781411,0.0675,0,0.8775,0.781506062,0.8775,-0.580086946,0.8775,0.064454108,0.0675,0,0.8775,-0.394781411,0.8775,-0.894300759,0.8775,-0.088624395
0.068019231,0,0.88425,0.40686655,0.88425,-0.817761481,0.88425,-0.43909362,0.068019231,0,0.88425,0.559945047,0.88425,-0.672739744,0.88425,-0.374639511,0.068019231,0,0.88425,0.696910024,0.88425,-0.551888287,0.88425,-0.016113527,0.068019231,0,0.88425,-0.390753031,0.88425,-0.870130479,0.88425,-0.177248791
0.068538462,0,0.891,0.40686655,0.891,-0.813733101,0.891,-0.43103683,0.068538462,0,0.891,0.483405799,0.891,-0.660654604,0.891,-0.358525962,0.068538462,0,0.891,0.668711364,0.891,-0.523689628,0.891,-0.076539256,0.068538462,0,0.891,-0.350469202,0.891,-0.84998852,0.891,-0.257816434
0.069057692,0,0.89775,0.378667891,0.89775,-0.797619581,0.89775,-0.463263899,0.069057692,0,0.89775,0.43103683,0.89775,-0.644541085,0.89775,-0.310185403,0.069057692,0,0.89775,0.672739744,0.89775,-0.527718008,0.89775,0.004028382,0.069057692,0,0.89775,-0.298100233,0.89775,-0.829846621,0.89775,-0.314213783
0.069576923,0,0.9045,0.378667891,0.9045,-0.797619581,0.9045,-0.41895169,0.069576923,0,0.9045,0.362554342,0.9045,-0.737193882,0.9045,-0.165163651,0.069576923,0,0.9045,0.676768124,0.9045,-0.612314045,0.9045,0.21753262,0.069576923,0,0.9045,-0.257816434,0.9045,-0.821789861,0.9045,-0.354497582
0.070096154,0,0.91125,0.374639511,0.91125,-0.805676341,0.91125,-0.374639511,0.070096154,0,0.91125,0.298100233,0.91125,-0.821789861,0.91125,-0.092652783,0.070096154,0,0.91125,0.539803147,0.91125,-0.749279022,0.91125,0.249759674,0.070096154,0,0.91125,-0.253788054,0.91125,-0.805676341,0.91125,-0.394781411
0.070615385,0,0.918,0.269901574,0.918,-0.813733101,0.918,-0.475349039,0.070615385,0,0.918,0.136964977,0.918,-0.914442658,0.918,-0.104737923,0.070615385,0,0.918,0.298100233,0.918,-0.882215619,0.918,0.209475845,0.070615385,0,0.918,-0.350469202,0.918,-0.789562821,0.918,-0.447150379
0.071134615,0,0.92475,0.064454108,0.92475,-0.797619581,0.92475,-0.535774767,0.071134615,0,0.92475,0.012085145,0.92475,-0.8540169,0.92475,-0.310185403,0.071134615,0,0.92475,0.060425725,0.92475,-0.922499418,0.92475,0.201419085,0.071134615,0,0.92475,-0.519661248,0.92475,-0.753307402,0.92475,-0.487434179
0.071653846,0,0.9315,-0.21753262,0.9315,-0.801647961,0.9315,-0.42700845,0.071653846,0,0.9315,-0.072510868,0.9315,-0.781506062,0.9315,-0.42298007,0.071653846,0,0.9315,-0.100709543,0.9315,-0.902357519,0.9315,0.189333946,0.071653846,0,0.9315,-0.753307402,0.9315,-0.749279022,0.9315,-0.386724651
0.072173077,0,0.93825,-0.43506524,0.93825,-0.83790338,0.93825,-0.265873194,0.072173077,0,0.93825,-0.080567636,0.93825,-0.805676341,0.93825,-0.326298922,0.072173077,0,0.93825,-0.185305566,0.93825,-0.870130479,0.93825,0.169192031,0.072173077,0,0.93825,-0.966811597,0.93825,-0.777477682,0.93825,-0.193362325
0.072692308,0,0.945,-0.447150379,0.945,-0.874158859,0.945,-0.209475845,0.072692308,0,0.945,-0.016113527,0.945,-0.874158859,0.945,-0.189333946,0.072692308,0,0.945,-0.193362325,0.945,-0.85804528,0.945,0.149050117,0.072692308,0,0.945,-1.035294056,0.945,-0.793591201,0.945,-0.104737923
0.073211538,0,0.95175,-0.281986713,0.95175,-0.882215619,0.95175,-0.261844814,0.073211538,0,0.95175,0.080567636,0.95175,-0.910414279,0.95175,-0.157106891,0.073211538,0,0.95175,-0.10876631,0.95175,-0.890272379,0.95175,0.165163651,0.073211538,0,0.95175,-1.055436015,0.95175,-0.821789861,0.95175,-0.032227054
0.073730769,0,0.9585,-0.076539256,0.9585,-0.890272379,0.9585,-0.306157023,0.073730769,0,0.9585,0.157106891,0.9585,-0.918471038,0.9585,-0.197390705,0.073730769,0,0.9585,-0.036255434,0.9585,-0.910414279,0.9585,0.193362325,0.073730769,0,0.9585,-0.890272379,0.9585,-0.83790338,0.9585,-0.100709543
0.07425,0,0.96525,0.064454108,0.96525,-0.894300759,0.96525,-0.314213783,0.07425,0,0.96525,0.22558938,0.96525,-0.902357519,0.96525,-0.257816434,0.07425,0,0.96525,0.128908217,0.96525,-0.938612938,0.96525,0.241702899,0.07425,0,0.96525,-0.676768124,0.96525,-0.85804528,0.96525,-0.221561
0.074769231,0,0.972,0.169192031,0.972,-0.906385899,0.972,-0.265873194,0.074769231,0,0.972,0.302128643,0.972,-0.890272379,0.972,-0.286015093,0.074769231,0,0.972,0.298100233,0.972,-0.906385899,0.972,0.249759674,0.074769231,0,0.972,-0.479377419,0.972,-0.894300759,0.972,-0.281986713
0.075288462,0,0.97875,0.209475845,0.97875,-0.918471038,0.97875,-0.241702899,0.075288462,0,0.97875,0.358525962,0.97875,-0.886243999,0.97875,-0.269901574,0.075288462,0,0.97875,0.41089493,0.97875,-0.825818241,0.97875,0.197390705,0.075288462,0,0.97875,-0.294071853,0.97875,-0.942641318,0.97875,-0.257816434
0.075807692,0,0.9855,0.290043473,0.9855,-0.966811597,0.9855,-0.241702899,0.075807692,0,0.9855,0.378667891,0.9855,-0.894300759,0.9855,-0.249759674,0.075807692,0,0.9855,0.507576108,0.9855,-0.749279022,0.9855,0.124879837,0.075807692,0,0.9855,-0.124879837,0.9855,-0.966811597,0.9855,-0.201419085
0.076326923,0,0.99225,0.41492331,0.99225,-0.990981877,0.99225,-0.237674519,0.076326923,0,0.99225,0.390753031,0.99225,-0.946669698,0.99225,-0.181277171,0.076326923,0,0.99225,0.620370805,0.99225,-0.713023543,0.99225,0.080567636,0.076326923,0,0.99225,-0.008056764,0.99225,-0.942641318,0.99225,-0.189333946
0.076846154,0,0.999,0.515632868,0.999,-0.990981877,0.999,-0.197390705,0.076846154,0,0.999,0.366582751,0.999,-1.035294056,0.999,-0.096681163,0.076846154,0,0.999,0.692881644,0.999,-0.725108683,0.999,0.084596016,0.076846154,0,0.999,0.004028382,0.999,-0.878187239,0.999,-0.253788054
0.077365385,0,1.00575,0.551888287,1.00575,-0.990981877,1.00575,-0.161135271,0.077365385,0,1.00575,0.314213783,1.00575,-1.091691494,1.00575,-0.016113527,0.077365385,0,1.00575,0.696910024,1.00575,-0.769420922,1.00575,0.124879837,0.077365385,0,1.00575,-0.052368961,1.00575,-0.813733101,1.00575,-0.370611131
0.077884615,0,1.0125,0.539803147,1.0125,-1.007095456,1.0125,-0.145021737,0.077884615,0,1.0125,0.245731279,1.0125,-1.099748254,1.0125,0.028198672,0.077884615,0,1.0125,0.632455945,1.0125,-0.829846621,1.0125,0.209475845,0.077884615,0,1.0125,-0.161135271,1.0125,-0.769420922,1.0125,-0.471320659
0.078403846,0,1.01925,0.487434179,1.01925,-1.019180536,1.01925,-0.128908217,0.078403846,0,1.01925,0.149050117,1.01925,-1.079606295,1.01925,0.048340581,0.078403846,0,1.01925,0.499519348,1.01925,-0.890272379,1.01925,0.302128643,0.078403846,0,1.01925,-0.265873194,1.01925,-0.761364162,1.01925,-0.507576108
0.078923077,0,1.026,0.40686655,1.026,-1.023208976,1.026,-0.100709543,0.078923077,0,1.026,0.056397345,1.026,-1.075577974,1.026,0.072510868,0.078923077,0,1.026,0.370611131,1.026,-0.934584558,1.026,0.366582751,0.078923077,0,1.026,-0.314213783,1.026,-0.769420922,1.026,-0.511604488
0.079442308,0,1.03275,0.334355682,1.03275,-1.039322495,1.03275,-0.084596016,0.079442308,0,1.03275,-0.004028382,1.03275,-1.091691494,1.03275,0.104737923,0.079442308,0,1.03275,0.302128643,1.03275,-0.954726458,1.03275,0.398809791,0.079442308,0,1.03275,-0.398809791,1.03275,-0.801647961,1.03275,-0.515632868
0.079961538,0,1.0395,0.294071853,1.0395,-1.047379255,1.0395,-0.064454108,0.079961538,0,1.0395,-0.016113527,1.0395,-1.095719814,1.0395,0.12085145,0.079961538,0,1.0395,0.140993357,1.0395,-1.011123776,1.0395,0.471320659,0.079961538,0,1.0395,-0.495490938,1.0395,-0.84596014,1.0395,-0.519661248
0.080480769,0,1.04625,0.245731279,1.04625,-1.047379255,1.04625,-0.040283818,0.080480769,0,1.04625,0.008056764,1.04625,-1.091691494,1.04625,0.080567636,0.080480769,0,1.04625,0.020141909,1.04625,-1.051407576,1.04625,0.543831527,0.080480769,0,1.04625,-0.555916667,1.04625,-0.902357519,1.04625,-0.515632868
0.081,0,1.053,0.22558938,1.053,-1.035294056,1.053,-0.044312198,0.081,0,1.053,0.032227054,1.053,-1.087663054,1.053,0.052368961,0.081,0,1.053,-0.020141909,1.053,-1.067521214,1.053,0.568001807,0.081,0,1.053,-0.592172086,1.053,-0.954726458,1.053,-0.487434179
0.081519231,0,1.05975,0.22558938,1.05975,-1.023208976,1.05975,-0.044312198,0.081519231,0,1.05975,0.076539256,1.05975,-1.067521214,1.05975,-0.024170291,0.081519231,0,1.05975,-0.020141909,1.05975,-1.051407576,1.05975,0.519661248,0.081519231,0,1.05975,-0.596200466,1.05975,-0.995010257,1.05975,-0.463263899
0.082038462,0,1.0665,0.23364614,1.0665,-1.019180536,1.0665,-0.024170291,0.082038462,0,1.0665,0.11279469,1.0665,-1.047379255,1.0665,-0.096681163,0.082038462,0,1.0665,0.008056764,1.0665,-1.003067017,1.0665,0.43506524,0.082038462,0,1.0665,-0.572030187,1.0665,-1.019180536,1.0665,-0.43103683
0.082557692,0,1.07325,0.257816434,1.07325,-1.019180536,1.07325,0.004028382,0.082557692,0,1.07325,0.140993357,1.07325,-1.035294056,1.07325,-0.124879837,0.082557692,0,1.07325,0.064454108,1.07325,-0.962783217,1.07325,0.358525962,0.082557692,0,1.07325,-0.487434179,1.07325,-1.035294056,1.07325,-0.402838171
0.083076923,0,1.08,0.257816434,1.08,-1.039322495,1.08,-0.060425725,0.083076923,0,1.08,0.149050117,1.08,-1.067521214,1.08,-0.076539256,0.083076923,0,1.08,0.165163651,1.08,-0.942641318,1.08,0.290043473,0.083076923,0,1.08,-0.338384062,1.08,-1.015152216,1.08,-0.394781411
0.083596154,0,1.08675,0.294071853,1.08675,-1.051407576,1.08675,-0.052368961,0.083596154,0,1.08675,0.12085145,1.08675,-1.140032053,1.08675,-0.012085145,0.083596154,0,1.08675,0.257816434,1.08675,-0.958754838,1.08675,0.249759674,0.083596154,0,1.08675,-0.205447465,1.08675,-0.946669698,1.08675,-0.402838171
0.084115385,0,1.0935,0.290043473,1.0935,-1.059464335,1.0935,-0.032227054,0.084115385,0,1.0935,0.088624395,1.0935,-1.196429372,1.0935,0.028198672,0.084115385,0,1.0935,0.322270542,1.0935,-0.990981877,1.0935,0.237674519,0.084115385,0,1.0935,-0.140993357,1.0935,-0.874158859,1.0935,-0.42700845
0.084634615,0,1.10025,0.273929954,1.10025,-1.079606295,1.10025,-0.040283818,0.084634615,0,1.10025,0.080567636,1.10025,-1.188372612,1.10025,0.024170291,0.084634615,0,1.10025,0.378667891,1.10025,-1.015152216,1.10025,0.237674519,0.084634615,0,1.10025,-0.12085145,1.10025,-0.84193176,1.10025,-0.43506524
0.085153846,0,1.107,0.306157023,1.107,-1.083634734,1.107,-0.040283818,0.085153846,0,1.107,0.072510868,1.107,-1.156145573,1.107,-0.016113527,0.085153846,0,1.107,0.398809791,1.107,-1.015152216,1.107,0.23364614,0.085153846,0,1.107,-0.124879837,1.107,-0.84596014,1.107,-0.43506524
0.085673077,0,1.11375,0.326298922,1.11375,-1.079606295,1.11375,-0.040283818,0.085673077,0,1.11375,0.084596016,1.11375,-1.127946854,1.11375,-0.040283818,0.085673077,0,1.11375,0.394781411,1.11375,-0.999038696,1.11375,0.209475845,0.085673077,0,1.11375,-0.157106891,1.11375,-0.906385899,1.11375,-0.447150379
0.086192308,0,1.1205,0.354497582,1.1205,-1.071549535,1.1205,-0.036255434,0.086192308,0,1.1205,0.096681163,1.1205,-1.119890094,1.1205,-0.048340581,0.086192308,0,1.1205,0.362554342,1.1205,-0.990981877,1.1205,0.21753262,0.086192308,0,1.1205,-0.221561,1.1205,-0.986953497,1.1205,-0.43909362
0.086711538,0,1.12725,0.370611131,1.12725,-1.067521214,1.12725,-0.032227054,0.086711538,0,1.12725,0.153078511,1.12725,-1.103776574,1.12725,-0.056397345,0.086711538,0,1.12725,0.326298922,1.12725,-0.990981877,1.12725,0.281986713,0.086711538,0,1.12725,-0.277958333,1.12725,-1.051407576,1.12725,-0.41895169
0.087230769,0,1.134,0.366582751,1.134,-1.059464335,1.134,-0.032227054,0.087230769,0,1.134,0.213504225,1.134,-1.087663054,1.134,-0.072510868,0.087230769,0,1.134,0.290043473,1.134,-0.995010257,1.134,0.350469202,0.087230769,0,1.134,-0.302128643,1.134,-1.063492775,1.134,-0.394781411
0.08775,0,1.14075,0.366582751,1.14075,-1.051407576,1.14075,-0.064454108,0.08775,0,1.14075,0.237674519,1.14075,-1.067521214,1.14075,-0.104737923,0.08775,0,1.14075,0.265873194,1.14075,-0.995010257,1.14075,0.370611131,0.08775,0,1.14075,-0.294071853,1.14075,-1.043350816,1.14075,-0.374639511
0.088269231,0,1.1475,0.370611131,1.1475,-1.047379255,1.1475,-0.060425725,0.088269231,0,1.1475,0.22558938,1.1475,-1.063492775,1.1475,-0.128908217,0.088269231,0,1.1475,0.269901574,1.1475,-0.999038696,1.1475,0.338384062,0.088269231,0,1.1475,-0.257816434,1.1475,-1.007095456,1.1475,-0.366582751
0.088788462,0,1.15425,0.334355682,1.15425,-1.051407576,1.15425,-0.064454108,0.088788462,0,1.15425,0.201419085,1.15425,-1.087663054,1.15425,-0.12085145,0.088788462,0,1.15425,0.302128643,1.15425,-0.986953497,1.15425,0.290043473,0.088788462,0,1.15425,-0.21753262,1.15425,-0.978896737,1.15425,-0.358525962
0.089307692,0,1.161,0.318242162,1.161,-1.059464335,1.161,-0.072510868,0.089307692,0,1.161,0.193362325,1.161,-1.087663054,1.161,-0.11279469,0.089307692,0,1.161,0.338384062,1.161,-0.962783217,1.161,0.253788054,0.089307692,0,1.161,-0.181277171,1.161,-0.970839977,1.161,-0.338384062
0.089826923,0,1.16775,0.314213783,1.16775,-1.067521214,1.16775,-0.056397345,0.089826923,0,1.16775,0.189333946,1.16775,-1.071549535,1.16775,-0.12085145,0.089826923,0,1.16775,0.378667891,1.16775,-0.950698078,1.16775,0.23364614,0.089826923,0,1.16775,-0.149050117,1.16775,-0.986953497,1.16775,-0.326298922
0.090346154,0,1.1745,0.338384062,1.1745,-1.071549535,1.1745,-0.008056764,0.090346154,0,1.1745,0.189333946,1.1745,-1.071549535,1.1745,-0.12085145,0.090346154,0,1.1745,0.394781411,1.1745,-0.950698078,1.1745,0.213504225,0.090346154,0,1.1745,-0.124879837,1.1745,-1.007095456,1.1745,-0.334355682
0.090865385,0,1.18125,0.342412442,1.18125,-1.071549535,1.18125,-0.016113527,0.090865385,0,1.18125,0.181277171,1.18125,-1.087663054,1.18125,-0.124879837,0.090865385,0,1.18125,0.394781411,1.18125,-0.954726458,1.18125,0.201419085,0.090865385,0,1.18125,-0.11279469,1.18125,-1.023208976,1.18125,-0.358525962
0.091384615,0,1.188,0.346440822,1.188,-1.071549535,1.188,-0.044312198,0.091384615,0,1.188,0.169192031,1.188,-1.091691494,1.188,-0.124879837,0.091384615,0,1.188,0.398809791,1.188,-0.954726458,1.188,0.189333946,0.091384615,0,1.188,-0.11682307,1.188,-1.023208976,1.188,-0.366582751
0.091903846,0,1.19475,0.362554342,1.19475,-1.079606295,1.19475,-0.048340581,0.091903846,0,1.19475,0.140993357,1.19475,-1.099748254,1.19475,-0.136964977,0.091903846,0,1.19475,0.41089493,1.19475,-0.946669698,1.19475,0.201419085,0.091903846,0,1.19475,-0.124879837,1.19475,-1.015152216,1.19475,-0.374639511
0.092423077,0,1.2015,0.350469202,1.2015,-1.075577974,1.2015,-0.040283818,0.092423077,0,1.2015,0.124879837,1.2015,-1.087663054,1.2015,-0.136964977,0.092423077,0,1.2015,0.402838171,1.2015,-0.954726458,1.2015,0.21753262,0.092423077,0,1.2015,-0.136964977,1.2015,-0.995010257,1.2015,-0.390753031
0.092942308,0,1.20825,0.334355682,1.20825,-1.075577974,1.20825,-0.012085145,0.092942308,0,1.20825,0.11682307,1.20825,-1.071549535,1.20825,-0.11682307,0.092942308,0,1.20825,0.350469202,1.20825,-0.974868357,1.20825,0.221561,0.092942308,0,1.20825,-0.145021737,1.20825,-0.966811597,1.20825,-0.41089493
0.093461538,0,1.215,0.314213783,1.215,-1.075577974,1.215,-0.004028382,0.093461538,0,1.215,0.092652783,1.215,-1.083634734,1.215,-0.084596016,0.093461538,0,1.215,0.286015093,1.215,-1.003067017,1.215,0.213504225,0.093461538,0,1.215,-0.124879837,1.215,-0.926527798,1.215,-0.43103683
0.093980769,0,1.22175,0.286015093,1.22175,-1.063492775,1.22175,-0.016113527,0.093980769,0,1.22175,0.048340581,1.22175,-1.091691494,1.22175,-0.096681163,0.093980769,0,1.22175,0.237674519,1.22175,-1.007095456,1.22175,0.21753262,0.093980769,0,1.22175,-0.100709543,1.22175,-0.902357519,1.22175,-0.42298007
0.0945,-1.19173E-05,1.2285,0.237674519,1.2285,-1.063492775,1.2285,0.008056764,0.0945,-4.61585E-05,1.2285,0.004028382,1.2285,-1.059464335,1.2285,-0.140993357,0.0945,-3.35698E-07,1.2285,0.197390705,1.2285,-0.995010257,1.2285,0.22558938,0.0945,8.39246E-07,1.2285,-0.100709543,1.2285,-0.910414279,1.2285,-0.374639511
0.095019231,-1.04067E-05,1.23525,0.165163651,1.23525,-1.055436015,1.23525,0.012085145,0.095019231,-4.51514E-05,1.23525,-0.012085145,1.23525,-1.027237296,1.23525,-0.181277171,0.095019231,1.17494E-06,1.23525,0.149050117,1.23525,-0.974868357,1.23525,0.197390705,0.095019231,2.85344E-06,1.23525,-0.132936597,1.23525,-0.934584558,1.23525,-0.322270542
0.095538462,-9.23171E-06,1.242,0.11279469,1.242,-1.051407576,1.242,-0.008056764,0.095538462,-4.0116E-05,1.242,-0.028198672,1.242,-1.007095456,1.242,-0.22558938,0.095538462,4.86763E-06,1.242,0.124879837,1.242,-0.946669698,1.242,0.161135271,0.095538462,1.67849E-06,1.242,-0.185305566,1.242,-0.950698078,1.242,-0.310185403
0.096057692,-6.88182E-06,1.24875,0.100709543,1.24875,-1.043350816,1.24875,-0.008056764,0.096057692,-4.07874E-05,1.24875,-0.048340581,1.24875,-1.011123776,1.24875,-0.22961776,0.096057692,5.20333E-06,1.24875,0.128908217,1.24875,-0.942641318,1.24875,0.12085145,0.096057692,2.18204E-06,1.24875,-0.21753262,1.24875,-0.938612938,1.24875,-0.318242162
0.096576923,-4.53193E-06,1.2555,0.092652783,1.2555,-1.043350816,1.2555,-0.008056764,0.096576923,-4.41444E-05,1.2555,-0.056397345,1.2555,-1.019180536,1.2555,-0.21753262,0.096576923,3.18914E-06,1.2555,0.136964977,1.2555,-0.942641318,1.2555,0.104737923,0.096576923,1.84634E-06,1.2555,-0.21753262,1.2555,-0.918471038,1.2555,-0.318242162
0.097096154,-4.19623E-06,1.26225,0.088624395,1.26225,-1.055436015,1.26225,-0.048340581,0.097096154,-4.17945E-05,1.26225,-0.056397345,1.26225,-1.019180536,1.26225,-0.21753262,0.097096154,1.17494E-06,1.26225,0.173220411,1.26225,-0.946669698,1.26225,0.088624395,0.097096154,-8.39246E-07,1.26225,-0.221561,1.26225,-0.914442658,1.26225,-0.314213783
0.097615385,-3.86053E-06,1.269,0.028198672,1.269,-1.075577974,1.269,-0.132936597,0.097615385,-3.30663E-05,1.269,-0.076539256,1.269,-0.986953497,1.269,-0.318242162,0.097615385,1.51064E-06,1.269,0.23364614,1.269,-0.970839977,1.269,0.11279469,0.097615385,-5.53903E-06,1.269,-0.205447465,1.269,-0.918471038,1.269,-0.302128643
0.098134615,8.39246E-07,1.27575,0.016113527,1.27575,-1.111833334,1.27575,-0.012085145,0.098134615,-2.53452E-05,1.27575,-0.11279469,1.27575,-0.966811597,1.27575,-0.40686655,0.098134615,3.35698E-06,1.27575,0.286015093,1.27575,-0.995010257,1.27575,0.12085145,0.098134615,-9.9031E-06,1.27575,-0.205447465,1.27575,-0.942641318,1.27575,-0.298100233
0.098653846,4.36408E-06,1.2825,0.040283818,1.2825,-1.180315852,1.2825,0.165163651,0.098653846,-1.98062E-05,1.2825,-0.201419085,1.2825,-1.152117133,1.2825,-0.237674519,0.098653846,5.53903E-06,1.2825,0.253788054,1.2825,-1.039322495,1.2825,0.068482488,0.098653846,-6.88182E-06,1.2825,-0.189333946,1.2825,-0.958754838,1.2825,-0.326298922
0.099173077,6.21042E-06,1.28925,0.008056764,1.28925,-1.27699697,1.28925,0.068482488,0.099173077,-1.82956E-05,1.28925,-0.290043473,1.28925,-1.353536248,1.28925,-0.004028382,0.099173077,6.54612E-06,1.28925,0.11279469,1.28925,-1.140032053,1.28925,0.048340581,0.099173077,-3.02129E-06,1.28925,-0.149050117,1.28925,-0.986953497,1.28925,-0.398809791
0.099692308,8.72816E-06,1.296,0.11279469,1.296,-1.29311049,1.296,0.028198672,0.099692308,-1.96384E-05,1.296,-0.100709543,1.296,-1.341451168,1.296,0.044312198,0.099692308,7.04967E-06,1.296,0.028198672,1.296,-1.28908217,1.296,0.11682307,0.099692308,-2.18204E-06,1.296,-0.088624395,1.296,-1.075577974,1.296,-0.451178759
0.100211538,1.15816E-05,1.30275,0.181277171,1.30275,-1.196429372,1.30275,0.072510868,0.100211538,-2.18204E-05,1.30275,0.257816434,1.30275,-1.417990327,1.30275,0.076539256,0.100211538,6.21042E-06,1.30275,-0.040283818,1.30275,-1.422018766,1.30275,0.273929954,0.100211538,-4.53193E-06,1.30275,-0.016113527,1.30275,-1.208514571,1.30275,-0.499519348
0.100730769,1.47707E-05,1.3095,0.185305566,1.3095,-1.184344172,1.3095,0.052368961,0.100730769,-1.8967E-05,1.3095,0.290043473,1.3095,-1.599267602,1.3095,0.257816434,0.100730769,5.20333E-06,1.3095,-0.056397345,1.3095,-1.522728324,1.3095,0.483405799,0.100730769,-7.21752E-06,1.3095,-0.064454108,1.3095,-1.317280769,1.3095,-0.612314045
0.10125,1.35958E-05,1.31625,0.265873194,1.31625,-1.196429372,1.31625,-0.032227054,0.10125,-1.30922E-05,1.31625,0.084596016,1.31625,-1.486472845,1.31625,0.104737923,0.10125,2.51774E-06,1.31625,-0.028198672,1.31625,-1.450217366,1.31625,0.551888287,0.10125,-1.15816E-05,1.31625,-0.269901574,1.31625,-1.345479488,1.31625,-0.644541085
0.101769231,1.05745E-05,1.323,0.273929954,1.323,-1.176287413,1.323,-0.056397345,0.101769231,-9.56741E-06,1.323,0.020141909,1.323,-1.357564688,1.323,-0.068482488,0.101769231,-8.39246E-07,1.323,0.052368961,1.323,-1.385763288,1.323,0.568001807,0.101769231,-1.29244E-05,1.323,-0.519661248,1.323,-1.25685513,1.323,-0.559945047
0.102288462,9.9031E-06,1.32975,0.153078511,1.32975,-1.188372612,1.32975,0.004028382,0.102288462,-1.10781E-05,1.32975,-0.028198672,1.32975,-1.168230653,1.32975,-0.294071853,0.102288462,-3.18914E-06,1.32975,0.181277171,1.32975,-1.244769931,1.32975,0.471320659,0.102288462,-1.40993E-05,1.32975,-0.664682984,1.32975,-1.079606295,1.32975,-0.451178759
0.102807692,9.56741E-06,1.3365,0.088624395,1.3365,-1.184344172,1.3365,0.024170291,0.102807692,-1.96384E-05,1.3365,-0.036255434,1.3365,-1.111833334,1.3365,-0.294071853,0.102807692,-3.35698E-06,1.3365,0.145021737,1.3365,-1.115861773,1.3365,0.221561,0.102807692,-1.66171E-05,1.3365,-0.600228906,1.3365,-0.942641318,1.3365,-0.350469202
0.103326923,7.21752E-06,1.34325,-0.012085145,1.34325,-1.115861773,1.34325,-0.036255434,0.103326923,-3.0045E-05,1.34325,-0.012085145,1.34325,-1.067521214,1.34325,-0.261844814,0.103326923,-1.84634E-06,1.34325,0.060425725,1.34325,-1.035294056,1.34325,-0.024170291,0.103326923,-1.82956E-05,1.34325,-0.42298007,1.34325,-0.926527798,1.34325,-0.281986713
0.103846154,7.04967E-06,1.35,-0.104737923,1.35,-1.027237296,1.35,-0.161135271,0.103846154,-3.37377E-05,1.35,0.084596016,1.35,-1.003067017,1.35,-0.374639511,0.103846154,-8.39246E-07,1.35,0.060425725,1.35,-1.023208976,1.35,-0.124879837,0.103846154,-1.72885E-05,1.35,-0.016113527,1.35,-0.986953497,1.35,-0.10876631
0.104365385,8.22461E-06,1.35675,-0.165163651,1.35675,-1.003067017,1.35675,-0.253788054,0.104365385,-3.18914E-05,1.35675,0.213504225,1.35675,-0.966811597,1.35675,-0.495490938,0.104365385,1.67849E-07,1.35675,0.201419085,1.35675,-1.023208976,1.35675,-0.12085145,0.104365385,-1.52743E-05,1.35675,0.22558938,1.35675,-1.087663054,1.35675,0.040283818
0.104884615,5.53903E-06,1.3635,-0.132936597,1.3635,-1.019180536,1.3635,-0.261844814,0.104884615,-3.17235E-05,1.3635,0.318242162,1.3635,-0.970839977,1.3635,-0.551888287,0.104884615,5.03548E-07,1.3635,0.42700845,1.3635,-0.999038696,1.3635,-0.145021737,0.104884615,-1.52743E-05,1.3635,0.23364614,1.3635,-1.140032053,1.3635,0.096681163
0.105403846,1.67849E-06,1.37025,-0.024170291,1.37025,-1.047379255,1.37025,-0.294071853,0.105403846,-3.05486E-05,1.37025,0.386724651,1.37025,-0.978896737,1.37025,-0.555916667,0.105403846,-4.69978E-06,1.37025,0.628427565,1.37025,-0.950698078,1.37025,-0.221561,0.105403846,-1.79599E-05,1.37025,-0.004028382,1.37025,-1.136003613,1.37025,0.044312198
0.105923077,-5.03548E-07,1.377,0.064454108,1.377,-1.059464335,1.377,-0.338384062,0.105923077,-3.13878E-05,1.377,0.447150379,1.377,-0.962783217,1.377,-0.523689628,0.105923077,-1.07424E-05,1.377,0.704966784,1.377,-0.914442658,1.377,-0.281986713,0.105923077,-1.86313E-05,1.377,-0.21753262,1.377,-1.119890094,1.377,-0.004028382
0.106442308,-4.02838E-06,1.38375,0.124879837,1.38375,-1.059464335,1.38375,-0.346440822,0.106442308,-3.5584E-05,1.38375,0.483405799,1.38375,-0.942641318,1.38375,-0.487434179,0.106442308,-1.09102E-05,1.38375,0.741222262,1.38375,-0.878187239,1.38375,-0.269901574,0.106442308,-1.52743E-05,1.38375,-0.294071853,1.38375,-1.107805014,1.38375,0.028198672
0.106961538,-1.25887E-05,1.3905,0.185305566,1.3905,-1.047379255,1.3905,-0.290043473,0.106961538,-4.07874E-05,1.3905,0.483405799,1.3905,-0.934584558,1.3905,-0.471320659,0.106961538,-8.05676E-06,1.3905,0.680796504,1.3905,-0.886243999,1.3905,-0.153078511,0.106961538,-9.56741E-06,1.3905,-0.205447465,1.3905,-1.075577974,1.3905,0.052368961
0.107480769,-1.93027E-05,1.39725,0.213504225,1.39725,-1.019180536,1.39725,-0.23364614,0.107480769,-4.28016E-05,1.39725,0.42700845,1.39725,-0.938612938,1.39725,-0.41492331,0.107480769,-4.86763E-06,1.39725,0.624399185,1.39725,-0.898329139,1.39725,-0.076539256,0.107480769,-4.36408E-06,1.39725,-0.004028382,1.39725,-1.027237296,1.39725,-0.012085145
0.108,-1.98062E-05,1.404,0.201419085,1.404,-1.015152216,1.404,-0.213504225,0.108,-4.24659E-05,1.404,0.326298922,1.404,-0.962783217,1.404,-0.358525962,0.108,-4.19623E-06,1.404,0.495490938,1.404,-0.930556178,1.404,0.020141909,0.108,-1.67849E-07,1.404,0.12085145,1.404,-0.990981877,1.404,-0.12085145
0.108519231,-2.21561E-05,1.41075,0.169192031,1.41075,-1.015152216,1.41075,-0.197390705,0.108519231,-4.04517E-05,1.41075,0.213504225,1.41075,-0.995010257,1.41075,-0.306157023,0.108519231,-5.53903E-06,1.41075,0.390753031,1.41075,-0.950698078,1.41075,0.024170291,0.108519231,-3.86053E-06,1.41075,0.088624395,1.41075,-0.974868357,1.41075,-0.205447465
0.109038462,-2.63523E-05,1.4175,0.149050117,1.4175,-1.043350816,1.4175,-0.169192031,0.109038462,-3.77661E-05,1.4175,0.149050117,1.4175,-1.023208976,1.4175,-0.273929954,0.109038462,-8.22461E-06,1.4175,0.338384062,1.4175,-0.974868357,1.4175,0.052368961,0.109038462,-1.10781E-05,1.4175,-0.080567636,1.4175,-1.003067017,1.4175,-0.261844814
0.109557692,-2.88701E-05,1.42425,0.124879837,1.42425,-1.067521214,1.42425,-0.140993357,0.109557692,-3.60876E-05,1.42425,0.128908217,1.42425,-1.051407576,1.42425,-0.257816434,0.109557692,-9.06386E-06,1.42425,0.302128643,1.42425,-1.015152216,1.42425,0.132936597,0.109557692,-1.35958E-05,1.42425,-0.169192031,1.42425,-1.015152216,1.42425,-0.277958333
0.110076923,-2.92058E-05,1.431,0.11279469,1.431,-1.075577974,1.431,-0.128908217,0.110076923,-3.15557E-05,1.431,0.140993357,1.431,-1.055436015,1.431,-0.265873194,0.110076923,-6.21042E-06,1.431,0.257816434,1.431,-1.043350816,1.431,0.177248791,0.110076923,-1.32601E-05,1.431,-0.322270542,1.431,-1.031265736,1.431,-0.294071853
0.110596154,-2.76951E-05,1.43775,0.088624395,1.43775,-1.083634734,1.43775,-0.12085145,0.110596154,-2.70237E-05,1.43775,0.140993357,1.43775,-1.075577974,1.43775,-0.241702899,0.110596154,5.03548E-07,1.43775,0.209475845,1.43775,-1.063492775,1.43775,0.189333946,0.110596154,-1.57778E-05,1.43775,-0.402838171,1.43775,-1.039322495,1.43775,-0.294071853
0.111115385,-2.63523E-05,1.4445,0.060425725,1.4445,-1.087663054,1.4445,-0.136964977,0.111115385,-2.73594E-05,1.4445,0.11279469,1.4445,-1.083634734,1.4445,-0.249759674,0.111115385,5.37118E-06,1.4445,0.193362325,1.4445,-1.079606295,1.4445,0.169192031,0.111115385,-1.8967E-05,1.4445,-0.402838171,1.4445,-1.047379255,1.4445,-0.290043473
0.111634615,-2.60166E-05,1.45125,0.044312198,1.45125,-1.079606295,1.45125,-0.157106891,0.111634615,-3.122E-05,1.45125,0.124879837,1.45125,-1.075577974,1.45125,-0.273929954,0.111634615,6.54612E-06,1.45125,0.21753262,1.45125,-1.067521214,1.45125,0.12085145,0.111634615,-1.66171E-05,1.45125,-0.350469202,1.45125,-1.043350816,1.45125,-0.273929954
0.112153846,-2.56809E-05,1.458,0.040283818,1.458,-1.075577974,1.458,-0.157106891,0.112153846,-3.17235E-05,1.458,0.173220411,1.458,-1.063492775,1.458,-0.302128643,0.112153846,9.56741E-06,1.458,0.249759674,1.458,-1.047379255,1.458,0.084596016,0.112153846,-1.19173E-05,1.458,-0.294071853,1.458,-1.031265736,1.458,-0.261844814
0.112673077,-2.38346E-05,1.46475,0.044312198,1.46475,-1.071549535,1.46475,-0.161135271,0.112673077,-2.76951E-05,1.46475,0.185305566,1.46475,-1.051407576,1.46475,-0.322270542,0.112673077,1.32601E-05,1.46475,0.290043473,1.46475,-1.027237296,1.46475,0.064454108,0.112673077,-1.02388E-05,1.46475,-0.249759674,1.46475,-1.027237296,1.46475,-0.21753262
0.113192308,-2.18204E-05,1.4715,0.052368961,1.4715,-1.063492775,1.4715,-0.173220411,0.113192308,-2.61845E-05,1.4715,0.197390705,1.4715,-1.023208976,1.4715,-0.326298922,0.113192308,1.2253E-05,1.4715,0.314213783,1.4715,-1.015152216,1.4715,0.040283818,0.113192308,-7.04967E-06,1.4715,-0.197390705,1.4715,-1.047379255,1.4715,-0.145021737
0.113711538,-1.54421E-05,1.47825,0.064454108,1.47825,-1.063492775,1.47825,-0.201419085,0.113711538,-3.05486E-05,1.47825,0.205447465,1.47825,-1.015152216,1.47825,-0.326298922,0.113711538,7.04967E-06,1.47825,0.358525962,1.47825,-0.982925117,1.47825,-0.008056764,0.113711538,-5.53903E-06,1.47825,-0.140993357,1.47825,-1.059464335,1.47825,-0.092652783
0.114230769,-1.05745E-05,1.485,0.072510868,1.485,-1.071549535,1.485,-0.221561,0.114230769,-4.17945E-05,1.485,0.22961776,1.485,-1.003067017,1.485,-0.370611131,0.114230769,4.53193E-06,1.485,0.40686655,1.485,-0.970839977,1.485,-0.024170291,0.114230769,-5.53903E-06,1.485,-0.084596016,1.485,-1.071549535,1.485,-0.076539256
0.11475,-1.20851E-05,1.49175,0.092652783,1.49175,-1.067521214,1.49175,-0.23364614,0.11475,-5.00191E-05,1.49175,0.277958333,1.49175,-1.007095456,1.49175,-0.382696271,0.11475,2.85344E-06,1.49175,0.451178759,1.49175,-0.966811597,1.49175,-0.048340581,0.11475,-5.53903E-06,1.49175,-0.064454108,1.49175,-1.063492775,1.49175,-0.088624395
0.115269231,-1.29244E-05,1.4985,0.100709543,1.4985,-1.063492775,1.4985,-0.237674519,0.115269231,-5.18654E-05,1.4985,0.310185403,1.4985,-1.011123776,1.4985,-0.386724651,0.115269231,-6.71397E-07,1.4985,0.479377419,1.4985,-0.974868357,1.4985,-0.060425725,0.115269231,-4.19623E-06,1.4985,-0.084596016,1.4985,-1.055436015,1.4985,-0.104737923
0.115788462,-9.73526E-06,1.50525,0.10876631,1.50525,-1.063492775,1.50525,-0.23364614,0.115788462,-5.28725E-05,1.50525,0.306157023,1.50525,-1.011123776,1.50525,-0.386724651,0.115788462,-3.02129E-06,1.50525,0.487434179,1.50525,-0.974868357,1.50525,-0.060425725,0.115788462,-4.53193E-06,1.50525,-0.104737923,1.50525,-1.059464335,1.50525,-0.10876631
0.116307692,-6.88182E-06,1.512,0.092652783,1.512,-1.067521214,1.512,-0.221561,0.116307692,-4.91798E-05,1.512,0.269901574,1.512,-1.011123776,1.512,-0.386724651,0.116307692,-1.84634E-06,1.512,0.463263899,1.512,-0.978896737,1.512,-0.068482488,0.116307692,-6.71397E-06,1.512,-0.136964977,1.512,-1.051407576,1.512,-0.11279469
0.116826923,-5.87472E-06,1.51875,0.080567636,1.51875,-1.063492775,1.51875,-0.213504225,0.116826923,-3.77661E-05,1.51875,0.23364614,1.51875,-1.011123776,1.51875,-0.366582751,0.116826923,3.18914E-06,1.51875,0.41895169,1.51875,-0.986953497,1.51875,-0.052368961,0.116826923,-6.54612E-06,1.51875,-0.145021737,1.51875,-1.043350816,1.51875,-0.104737923
0.117346154,-5.53903E-06,1.5255,0.056397345,1.5255,-1.063492775,1.5255,-0.205447465,0.117346154,-2.63523E-05,1.5255,0.221561,1.5255,-1.019180536,1.5255,-0.354497582,0.117346154,7.88891E-06,1.5255,0.382696271,1.5255,-0.999038696,1.5255,-0.016113527,0.117346154,-5.37118E-06,1.5255,-0.128908217,1.5255,-1.039322495,1.5255,-0.11279469
0.117865385,-6.21042E-06,1.53225,0.052368961,1.53225,-1.063492775,1.53225,-0.197390705,0.117865385,-2.3331E-05,1.53225,0.21753262,1.53225,-1.023208976,1.53225,-0.350469202,0.117865385,8.39246E-06,1.53225,0.362554342,1.53225,-1.007095456,1.53225,0.008056764,0.117865385,-7.21752E-06,1.53225,-0.124879837,1.53225,-1.035294056,1.53225,-0.132936597
0.118384615,-4.86763E-06,1.539,0.056397345,1.539,-1.055436015,1.539,-0.193362325,0.118384615,-2.36667E-05,1.539,0.197390705,1.539,-1.031265736,1.539,-0.330327302,0.118384615,6.54612E-06,1.539,0.346440822,1.539,-1.007095456,1.539,0.016113527,0.118384615,-7.21752E-06,1.539,-0.136964977,1.539,-1.027237296,1.539,-0.145021737
0.118903846,-2.01419E-06,1.54575,0.052368961,1.54575,-1.051407576,1.54575,-0.181277171,0.118903846,-2.43381E-05,1.54575,0.185305566,1.54575,-1.019180536,1.54575,-0.334355682,0.118903846,3.02129E-06,1.54575,0.338384062,1.54575,-1.007095456,1.54575,0.008056764,0.118903846,-5.53903E-06,1.54575,-0.161135271,1.54575,-1.027237296,1.54575,-0.149050117
0.119423077,5.03548E-07,1.5525,0.040283818,1.5525,-1.043350816,1.5525,-0.177248791,0.119423077,-2.70237E-05,1.5525,0.193362325,1.5525,-1.011123776,1.5525,-0.346440822,0.119423077,1.17494E-06,1.5525,0.322270542,1.5525,-0.999038696,1.5525,-0.012085145,0.119423077,-4.53193E-06,1.5525,-0.173220411,1.5525,-1.023208976,1.5525,-0.157106891
0.119942308,1.17494E-06,1.55925,0.032227054,1.55925,-1.039322495,1.55925,-0.181277171,0.119942308,-2.70237E-05,1.55925,0.189333946,1.55925,-1.007095456,1.55925,-0.346440822,0.119942308,5.03548E-07,1.55925,0.314213783,1.55925,-1.003067017,1.55925,-0.004028382,0.119942308,-4.86763E-06,1.55925,-0.177248791,1.55925,-1.011123776,1.55925,-0.161135271
0.120461538,-2.01419E-06,1.566,0.024170291,1.566,-1.047379255,1.566,-0.185305566,0.120461538,-2.70237E-05,1.566,0.193362325,1.566,-1.003067017,1.566,-0.354497582,0.120461538,-5.03548E-07,1.566,0.322270542,1.566,-0.999038696,1.566,0,0.120461538,-8.89601E-06,1.566,-0.173220411,1.566,-1.011123776,1.566,-0.145021737
0.120980769,-4.36408E-06,1.57275,0.024170291,1.57275,-1.047379255,1.57275,-0.201419085,0.120980769,-3.0045E-05,1.57275,0.201419085,1.57275,-1.003067017,1.57275,-0.350469202,0.120980769,-4.19623E-06,1.57275,0.334355682,1.57275,-0.995010257,1.57275,-0.008056764,0.120980769,-1.35958E-05,1.57275,-0.165163651,1.57275,-1.023208976,1.57275,-0.12085145
0.1215,-4.36408E-06,1.5795,0.032227054,1.5795,-1.051407576,1.5795,-0.213504225,0.1215,-3.07164E-05,1.5795,0.205447465,1.5795,-1.003067017,1.5795,-0.354497582,0.1215,-6.04257E-06,1.5795,0.350469202,1.5795,-0.990981877,1.5795,-0.016113527,0.1215,-1.27565E-05,1.5795,-0.161135271,1.5795,-1.031265736,1.5795,-0.10876631
0.122019231,-4.53193E-06,1.58625,0.044312198,1.58625,-1.051407576,1.58625,-0.213504225,0.122019231,-2.90379E-05,1.58625,0.21753262,1.58625,-1.003067017,1.58625,-0.362554342,0.122019231,-6.88182E-06,1.58625,0.382696271,1.58625,-0.982925117,1.58625,-0.028198672,0.122019231,-1.09102E-05,1.58625,-0.157106891,1.58625,-1.027237296,1.58625,-0.104737923
0.122538462,-7.04967E-06,1.593,0.060425725,1.593,-1.051407576,1.593,-0.21753262,0.122538462,-3.0045E-05,1.593,0.249759674,1.593,-1.003067017,1.593,-0.346440822,0.122538462,-8.22461E-06,1.593,0.40686655,1.593,-0.962783217,1.593,-0.040283818,0.122538462,-1.25887E-05,1.593,-0.153078511,1.593,-1.031265736,1.593,-0.104737923
0.123057692,-1.02388E-05,1.59975,0.084596016,1.59975,-1.055436015,1.59975,-0.21753262,0.123057692,-3.18914E-05,1.59975,0.253788054,1.59975,-1.011123776,1.59975,-0.342412442,0.123057692,-8.89601E-06,1.59975,0.43103683,1.59975,-0.954726458,1.59975,-0.040283818,0.123057692,-1.35958E-05,1.59975,-0.136964977,1.59975,-1.023208976,1.59975,-0.10876631
0.123576923,-8.22461E-06,1.6065,0.096681163,1.6065,-1.051407576,1.6065,-0.21753262,0.123576923,-2.92058E-05,1.6065,0.241702899,1.6065,-0.995010257,1.6065,-0.370611131,0.123576923,-1.02388E-05,1.6065,0.455207139,1.6065,-0.950698078,1.6065,-0.032227054,0.123576923,-1.62814E-05,1.6065,-0.124879837,1.6065,-1.027237296,1.6065,-0.104737923
0.124096154,-6.54612E-06,1.61325,0.10876631,1.61325,-1.047379255,1.61325,-0.22558938,0.124096154,-2.80308E-05,1.61325,0.265873194,1.61325,-0.986953497,1.61325,-0.358525962,0.124096154,-1.49386E-05,1.61325,0.459235519,1.61325,-0.942641318,1.61325,-0.032227054,0.124096154,-1.82956E-05,1.61325,-0.12085145,1.61325,-1.035294056,1.61325,-0.100709543
0.124615385,-6.54612E-06,1.62,0.12085145,1.62,-1.051407576,1.62,-0.245731279,0.124615385,-3.122E-05,1.62,0.298100233,1.62,-0.995010257,1.62,-0.338384062,0.124615385,-1.67849E-05,1.62,0.467292279,1.62,-0.942641318,1.62,-0.024170291,0.124615385,-1.62814E-05,1.62,-0.132936597,1.62,-1.039322495,1.62,-0.11682307
0.125134615,-7.72107E-06,1.62675,0.132936597,1.62675,-1.051407576,1.62675,-0.245731279,0.125134615,-3.28984E-05,1.62675,0.290043473,1.62675,-1.003067017,1.62675,-0.346440822,0.125134615,-1.52743E-05,1.62675,0.467292279,1.62675,-0.950698078,1.62675,-0.004028382,0.125134615,-1.25887E-05,1.62675,-0.149050117,1.62675,-1.023208976,1.62675,-0.145021737
0.125653846,-8.56031E-06,1.6335,0.124879837,1.6335,-1.051407576,1.6335,-0.23364614,0.125653846,-3.22271E-05,1.6335,0.265873194,1.6335,-0.999038696,1.6335,-0.350469202,0.125653846,-1.30922E-05,1.6335,0.459235519,1.6335,-0.954726458,1.6335,-0.004028382,0.125653846,-1.39315E-05,1.6335,-0.169192031,1.6335,-1.015152216,1.6335,-0.136964977
0.126173077,-1.12459E-05,1.64025,0.10876631,1.64025,-1.055436015,1.64025,-0.221561,0.126173077,-3.20592E-05,1.64025,0.257816434,1.64025,-0.995010257,1.64025,-0.338384062,0.126173077,-7.55322E-06,1.64025,0.43103683,1.64025,-0.950698078,1.64025,-0.004028382,0.126173077,-1.66171E-05,1.64025,-0.189333946,1.64025,-1.019180536,1.64025,-0.12085145
0.126692308,-1.12459E-05,1.647,0.096681163,1.647,-1.055436015,1.647,-0.22961776,0.126692308,-3.17235E-05,1.647,0.257816434,1.647,-0.995010257,1.647,-0.322270542,0.126692308,-4.19623E-06,1.647,0.41492331,1.647,-0.954726458,1.647,0.008056764,0.126692308,-1.561E-05,1.647,-0.197390705,1.647,-1.027237296,1.647,-0.11682307
0.127211538,-1.35958E-05,1.65375,0.104737923,1.65375,-1.043350816,1.65375,-0.23364614,0.127211538,-3.40734E-05,1.65375,0.249759674,1.65375,-0.999038696,1.65375,-0.322270542,0.127211538,-5.53903E-06,1.65375,0.41089493,1.65375,-0.962783217,1.65375,0.016113527,0.127211538,-1.19173E-05,1.65375,-0.201419085,1.65375,-1.031265736,1.65375,-0.132936597
0.127730769,-2.06455E-05,1.6605,0.10876631,1.6605,-1.043350816,1.6605,-0.221561,0.127730769,-3.40734E-05,1.6605,0.245731279,1.6605,-0.999038696,1.6605,-0.326298922,0.127730769,-5.53903E-06,1.6605,0.402838171,1.6605,-0.966811597,1.6605,0.016113527,0.127730769,-6.88182E-06,1.6605,-0.209475845,1.6605,-1.015152216,1.6605,-0.157106891
0.12825,-2.23239E-05,1.66725,0.096681163,1.66725,-1.043350816,1.66725,-0.213504225,0.12825,-3.44091E-05,1.66725,0.241702899,1.66725,-0.999038696,1.66725,-0.322270542,0.12825,-3.18914E-06,1.66725,0.390753031,1.66725,-0.962783217,1.66725,0.024170291,0.12825,-8.39246E-07,1.66725,-0.209475845,1.66725,-1.011123776,1.66725,-0.161135271
0.128769231,-1.93027E-05,1.674,0.088624395,1.674,-1.051407576,1.674,-0.221561,0.128769231,-3.47448E-05,1.674,0.237674519,1.674,-0.999038696,1.674,-0.318242162,0.128769231,1.67849E-07,1.674,0.386724651,1.674,-0.970839977,1.674,0.028198672,0.128769231,-5.03548E-07,1.674,-0.213504225,1.674,-1.007095456,1.674,-0.157106891
0.129288462,-1.8967E-05,1.68075,0.084596016,1.68075,-1.055436015,1.68075,-0.22961776,0.129288462,-3.13878E-05,1.68075,0.22961776,1.68075,-1.003067017,1.68075,-0.326298922,0.129288462,0,1.68075,0.386724651,1.68075,-0.974868357,1.68075,0.024170291,0.129288462,-1.0071E-06,1.68075,-0.213504225,1.68075,-1.019180536,1.68075,-0.145021737
0.129807692,-1.72885E-05,1.6875,0.072510868,1.6875,-1.055436015,1.6875,-0.22961776,0.129807692,-2.87022E-05,1.6875,0.23364614,1.6875,-1.007095456,1.6875,-0.334355682,0.129807692,1.84634E-06,1.6875,0.386724651,1.6875,-0.978896737,1.6875,0.020141909,0.129807692,-8.39246E-07,1.6875,-0.213504225,1.6875,-1.027237296,1.6875,-0.132936597
0.130326923,-1.62814E-05,1.69425,0.068482488,1.69425,-1.055436015,1.69425,-0.22558938,0.130326923,-2.70237E-05,1.69425,0.237674519,1.69425,-1.007095456,1.69425,-0.326298922,0.130326923,5.53903E-06,1.69425,0.390753031,1.69425,-0.974868357,1.69425,0.016113527,0.130326923,-3.52483E-06,1.69425,-0.213504225,1.69425,-1.027237296,1.69425,-0.140993357
0.130846154,-1.62814E-05,1.701,0.072510868,1.701,-1.055436015,1.701,-0.22558938,0.130846154,-2.73594E-05,1.701,0.241702899,1.701,-0.995010257,1.701,-0.338384062,0.130846154,5.87472E-06,1.701,0.394781411,1.701,-0.962783217,1.701,0.004028382,0.130846154,-8.22461E-06,1.701,-0.205447465,1.701,-1.027237296,1.701,-0.136964977
0.131365385,-1.62814E-05,1.70775,0.080567636,1.70775,-1.055436015,1.70775,-0.22961776,0.131365385,-3.0045E-05,1.70775,0.257816434,1.70775,-0.999038696,1.70775,-0.330327302,0.131365385,8.22461E-06,1.70775,0.41089493,1.70775,-0.958754838,1.70775,-0.008056764,0.131365385,-1.14137E-05,1.70775,-0.197390705,1.70775,-1.023208976,1.70775,-0.132936597
0.131884615,-1.52743E-05,1.7145,0.092652783,1.7145,-1.047379255,1.7145,-0.237674519,0.131884615,-2.80308E-05,1.7145,0.253788054,1.7145,-0.995010257,1.7145,-0.334355682,0.131884615,1.15816E-05,1.7145,0.42700845,1.7145,-0.954726458,1.7145,-0.004028382,0.131884615,-1.39315E-05,1.7145,-0.193362325,1.7145,-1.019180536,1.7145,-0.128908217
0.132403846,-9.9031E-06,1.72125,0.100709543,1.72125,-1.047379255,1.72125,-0.22961776,0.132403846,-2.19883E-05,1.72125,0.257816434,1.72125,-0.990981877,1.72125,-0.326298922,0.132403846,1.29244E-05,1.72125,0.43506524,1.72125,-0.950698078,1.72125,-0.012085145,0.132403846,-1.49386E-05,1.72125,-0.185305566,1.72125,-1.015152216,1.72125,-0.132936597
0.132923077,-1.51064E-06,1.728,0.104737923,1.728,-1.047379255,1.728,-0.22961776,0.132923077,-1.86313E-05,1.728,0.249759674,1.728,-0.995010257,1.728,-0.334355682,0.132923077,1.07424E-05,1.728,0.42298007,1.728,-0.954726458,1.728,-0.012085145,0.132923077,-1.69528E-05,1.728,-0.169192031,1.728,-1.023208976,1.728,-0.136964977
0.133442308,1.17494E-06,1.73475,0.092652783,1.73475,-1.051407576,1.73475,-0.22961776,0.133442308,-2.09812E-05,1.73475,0.245731279,1.73475,-0.995010257,1.73475,-0.346440822,0.133442308,6.54612E-06,1.73475,0.42298007,1.73475,-0.958754838,1.73475,0,0.133442308,-1.72885E-05,1.73475,-0.165163651,1.73475,-1.027237296,1.73475,-0.12085145
0.133961538,3.35698E-07,1.7415,0.088624395,1.7415,-1.051407576,1.7415,-0.22558938,0.133961538,-2.3331E-05,1.7415,0.257816434,1.7415,-0.990981877,1.7415,-0.350469202,0.133961538,2.51774E-06,1.7415,0.42298007,1.7415,-0.954726458,1.7415,-0.012085145,0.133961538,-1.82956E-05,1.7415,-0.173220411,1.7415,-1.027237296,1.7415,-0.12085145
0.134480769,2.34989E-06,1.74825,0.092652783,1.74825,-1.051407576,1.74825,-0.23364614,0.134480769,-1.96384E-05,1.74825,0.269901574,1.74825,-0.999038696,1.74825,-0.326298922,0.134480769,3.86053E-06,1.74825,0.42298007,1.74825,-0.962783217,1.74825,0,0.134480769,-1.8967E-05,1.74825,-0.177248791,1.74825,-1.027237296,1.74825,-0.124879837
0.135,3.69268E-06,1.755,0.104737923,1.755,-1.047379255,1.755,-0.23364614,0.135,-1.25887E-05,1.755,0.261844814,1.755,-1.003067017,1.755,-0.326298922,0.135,1.09102E-05,1.755,0.42298007,1.755,-0.966811597,1.755,0.004028382,0.135,-1.72885E-05,1.755,-0.193362325,1.755,-1.027237296,1.755,-0.136964977
0.135519231,2.51774E-06,1.76175,0.100709543,1.76175,-1.047379255,1.76175,-0.22961776,0.135519231,-8.22461E-06,1.76175,0.249759674,1.76175,-0.999038696,1.76175,-0.338384062,0.135519231,1.51064E-05,1.76175,0.42298007,1.76175,-0.966811597,1.76175,-0.004028382,0.135519231,-1.35958E-05,1.76175,-0.189333946,1.76175,-1.023208976,1.76175,-0.140993357
0.136038462,5.03548E-07,1.7685,0.088624395,1.7685,-1.051407576,1.7685,-0.22558938,0.136038462,-7.55322E-06,1.7685,0.249759674,1.7685,-0.995010257,1.7685,-0.342412442,0.136038462,1.42672E-05,1.7685,0.41895169,1.7685,-0.958754838,1.7685,-0.012085145,0.136038462,-9.06386E-06,1.7685,-0.177248791,1.7685,-1.019180536,1.7685,-0.136964977
0.136557692,1.17494E-06,1.77525,0.080567636,1.77525,-1.055436015,1.77525,-0.221561,0.136557692,-5.03548E-06,1.77525,0.253788054,1.77525,-1.003067017,1.77525,-0.334355682,0.136557692,1.39315E-05,1.77525,0.41089493,1.77525,-0.970839977,1.77525,-0.008056764,0.136557692,-8.39246E-07,1.77525,-0.169192031,1.77525,-1.023208976,1.77525,-0.136964977
0.137076923,3.86053E-06,1.782,0.072510868,1.782,-1.055436015,1.782,-0.221561,0.137076923,-1.67849E-06,1.782,0.241702899,1.782,-1.007095456,1.782,-0.342412442,0.137076923,1.52743E-05,1.782,0.402838171,1.782,-0.978896737,1.782,-0.012085145,0.137076923,2.34989E-06,1.782,-0.161135271,1.782,-1.027237296,1.782,-0.132936597
0.137596154,4.53193E-06,1.78875,0.072510868,1.78875,-1.055436015,1.78875,-0.221561,0.137596154,-2.85344E-06,1.78875,0.23364614,1.78875,-1.007095456,1.78875,-0.342412442,0.137596154,1.04067E-05,1.78875,0.394781411,1.78875,-0.978896737,1.78875,-0.016113527,0.137596154,-6.37827E-06,1.78875,-0.165163651,1.78875,-1.035294056,1.78875,-0.124879837
0.138115385,-1.67849E-06,1.7955,0.064454108,1.7955,-1.059464335,1.7955,-0.21753262,0.138115385,-7.38537E-06,1.7955,0.22961776,1.7955,-1.011123776,1.7955,-0.342412442,0.138115385,-3.18914E-06,1.7955,0.386724651,1.7955,-0.982925117,1.7955,-0.008056764,0.138115385,-1.51064E-05,1.7955,-0.169192031,1.7955,-1.035294056,1.7955,-0.12085145
0.138634615,-8.89601E-06,1.80225,0.060425725,1.80225,-1.059464335,1.80225,-0.22558938,0.138634615,-1.84634E-06,1.80225,0.23364614,1.80225,-1.007095456,1.80225,-0.342412442,0.138634615,-1.51064E-05,1.80225,0.402838171,1.80225,-0.974868357,1.80225,-0.016113527,0.138634615,-1.72885E-05,1.80225,-0.165163651,1.80225,-1.031265736,1.80225,-0.11682307
0.139153846,-1.09102E-05,1.809,0.068482488,1.809,-1.055436015,1.809,-0.22961776,0.139153846,9.23171E-06,1.809,0.237674519,1.809,-0.999038696,1.809,-0.346440822,0.139153846,-1.7792E-05,1.809,0.41895169,1.809,-0.962783217,1.809,-0.024170291,0.139153846,-1.57778E-05,1.809,-0.165163651,1.809,-1.027237296,1.809,-0.12085145
0.139673077,-8.22461E-06,1.81575,0.076539256,1.81575,-1.047379255,1.81575,-0.22558938,0.139673077,1.05745E-05,1.81575,0.249759674,1.81575,-0.995010257,1.81575,-0.350469202,0.139673077,-1.4435E-05,1.81575,0.42298007,1.81575,-0.962783217,1.81575,-0.032227054,0.139673077,-1.24208E-05,1.81575,-0.161135271,1.81575,-1.019180536,1.81575,-0.124879837
0.140192308,-8.39246E-06,1.8225,0.076539256,1.8225,-1.047379255,1.8225,-0.221561,0.140192308,-1.84634E-06,1.8225,0.257816434,1.8225,-0.986953497,1.8225,-0.350469202,0.140192308,-1.561E-05,1.8225,0.41895169,1.8225,-0.966811597,1.8225,-0.036255434,0.140192308,-5.20333E-06,1.8225,-0.161135271,1.8225,-1.019180536,1.8225,-0.12085145
0.140711538,-1.35958E-05,1.82925,0.076539256,1.82925,-1.043350816,1.82925,-0.22558938,0.140711538,-1.98062E-05,1.82925,0.253788054,1.82925,-0.995010257,1.82925,-0.354497582,0.140711538,-1.7792E-05,1.82925,0.41492331,1.82925,-0.962783217,1.82925,-0.032227054,0.140711538,3.35698E-07,1.82925,-0.157106891,1.82925,-1.023208976,1.82925,-0.12085145
0.141230769,-1.76242E-05,1.836,0.076539256,1.836,-1.047379255,1.836,-0.22558938,0.141230769,-3.47448E-05,1.836,0.245731279,1.836,-0.995010257,1.836,-0.346440822,0.141230769,-1.30922E-05,1.836,0.41492331,1.836,-0.962783217,1.836,-0.028198672,0.141230769,-8.39246E-07,1.836,-0.153078511,1.836,-1.023208976,1.836,-0.11682307
0.14175,-1.561E-05,1.84275,0.068482488,1.84275,-1.055436015,1.84275,-0.221561,0.14175,-5.01869E-05,1.84275,0.237674519,1.84275,-0.999038696,1.84275,-0.346440822,0.14175,-4.86763E-06,1.84275,0.402838171,1.84275,-0.966811597,1.84275,-0.028198672,0.14175,-2.18204E-06,1.84275,-0.153078511,1.84275,-1.027237296,1.84275,-0.12085145
0.142269231,-1.49386E-05,1.8495,0.064454108,1.8495,-1.055436015,1.8495,-0.221561,0.142269231,-7.20073E-05,1.8495,0.237674519,1.8495,-1.007095456,1.8495,-0.350469202,0.142269231,4.19623E-06,1.8495,0.402838171,1.8495,-0.974868357,1.8495,-0.020141909,0.142269231,-2.85344E-06,1.8495,-0.157106891,1.8495,-1.031265736,1.8495,-0.12085145
0.142788462,-1.64492E-05,1.85625,0.064454108,1.85625,-1.055436015,1.85625,-0.221561,0.142788462,-8.94636E-05,1.85625,0.241702899,1.85625,-1.007095456,1.85625,-0.354497582,0.142788462,5.53903E-06,1.85625,0.402838171,1.85625,-0.978896737,1.85625,-0.024170291,0.142788462,-8.89601E-06,1.85625,-0.169192031,1.85625,-1.031265736,1.85625,-0.124879837
0.143307692,-1.52743E-05,1.863,0.060425725,1.863,-1.047379255,1.863,-0.21753262,0.143307692,-9.26528E-05,1.863,0.241702899,1.863,-1.003067017,1.863,-0.350469202,0.143307692,-4.36408E-06,1.863,0.398809791,1.863,-0.974868357,1.863,-0.028198672,0.143307692,-1.7792E-05,1.863,-0.173220411,1.863,-1.023208976,1.863,-0.128908217
0.143826923,-1.35958E-05,1.86975,0.056397345,1.86975,-1.047379255,1.86975,-0.209475845,0.143826923,-8.96315E-05,1.86975,0.23364614,1.86975,-0.999038696,1.86975,-0.346440822,0.143826923,-1.09102E-05,1.86975,0.390753031,1.86975,-0.970839977,1.86975,-0.028198672,0.143826923,-2.3331E-05,1.86975,-0.169192031,1.86975,-1.027237296,1.86975,-0.128908217
0.144346154,-1.61135E-05,1.8765,0.056397345,1.8765,-1.051407576,1.8765,-0.213504225,0.144346154,-8.81209E-05,1.8765,0.23364614,1.8765,-0.999038696,1.8765,-0.350469202,0.144346154,-8.89601E-06,1.8765,0.390753031,1.8765,-0.970839977,1.8765,-0.028198672,0.144346154,-2.56809E-05,1.8765,-0.157106891,1.8765,-1.027237296,1.8765,-0.11682307
0.144865385,-1.82956E-05,1.88325,0.060425725,1.88325,-1.055436015,1.88325,-0.21753262,0.144865385,-8.37568E-05,1.88325,0.22961776,1.88325,-1.003067017,1.88325,-0.354497582,0.144865385,-6.21042E-06,1.88325,0.394781411,1.88325,-0.970839977,1.88325,-0.024170291,0.144865385,-3.3402E-05,1.88325,-0.157106891,1.88325,-1.031265736,1.88325,-0.11682307
0.145384615,-1.35958E-05,1.89,0.064454108,1.89,-1.051407576,1.89,-0.22558938,0.145384615,-7.92248E-05,1.89,0.237674519,1.89,-1.003067017,1.89,-0.350469202,0.145384615,-7.21752E-06,1.89,0.402838171,1.89,-0.970839977,1.89,-0.020141909,0.145384615,-4.38087E-05,1.89,-0.161135271,1.89,-1.031265736,1.89,-0.12085145
0.145903846,-2.34989E-06,1.89675,0.072510868,1.89675,-1.055436015,1.89675,-0.22558938,0.145903846,-7.60357E-05,1.89675,0.249759674,1.89675,-1.007095456,1.89675,-0.346440822,0.145903846,-7.88891E-06,1.89675,0.41492331,1.89675,-0.970839977,1.89675,-0.024170291,0.145903846,-4.19623E-05,1.89675,-0.169192031,1.89675,-1.031265736,1.89675,-0.12085145
0.146423077,7.72107E-06,1.9035,0.080567636,1.9035,-1.051407576,1.9035,-0.22558938,0.146423077,-7.13359E-05,1.9035,0.257816434,1.9035,-0.999038696,1.9035,-0.346440822,0.146423077,-1.07424E-05,1.9035,0.42298007,1.9035,-0.962783217,1.9035,-0.024170291,0.146423077,-3.23949E-05,1.9035,-0.169192031,1.9035,-1.023208976,1.9035,-0.124879837
0.146942308,8.56031E-06,1.91025,0.084596016,1.91025,-1.051407576,1.91025,-0.22961776,0.146942308,-6.009E-05,1.91025,0.253788054,1.91025,-0.999038696,1.91025,-0.346440822,0.146942308,-1.52743E-05,1.91025,0.42298007,1.91025,-0.962783217,1.91025,-0.024170291,0.146942308,-2.80308E-05,1.91025,-0.169192031,1.91025,-1.023208976,1.91025,-0.128908217
0.147461538,1.17494E-06,1.917,0.088624395,1.917,-1.047379255,1.917,-0.23364614,0.147461538,-4.93477E-05,1.917,0.253788054,1.917,-0.990981877,1.917,-0.342412442,0.147461538,-1.86313E-05,1.917,0.42700845,1.917,-0.958754838,1.917,-0.024170291,0.147461538,-2.4506E-05,1.917,-0.165163651,1.917,-1.019180536,1.917,-0.128908217
0.147980769,-1.84634E-06,1.92375,0.084596016,1.92375,-1.043350816,1.92375,-0.23364614,0.147980769,-3.99481E-05,1.92375,0.253788054,1.92375,-0.986953497,1.92375,-0.346440822,0.147980769,-1.93027E-05,1.92375,0.42298007,1.92375,-0.954726458,1.92375,-0.028198672,0.147980769,-1.561E-05,1.92375,-0.173220411,1.92375,-1.023208976,1.92375,-0.128908217
0.1485,3.69268E-06,1.9305,0.080567636,1.9305,-1.051407576,1.9305,-0.22961776,0.1485,-2.97093E-05,1.9305,0.253788054,1.9305,-0.995010257,1.9305,-0.346440822,0.1485,-1.96384E-05,1.9305,0.41492331,1.9305,-0.962783217,1.9305,-0.016113527,0.1485,8.39246E-07,1.9305,-0.177248791,1.9305,-1.023208976,1.9305,-0.124879837
0.149019231,9.73526E-06,1.93725,0.076539256,1.93725,-1.059464335,1.93725,-0.221561,0.149019231,-2.40024E-05,1.93725,0.241702899,1.93725,-0.999038696,1.93725,-0.342412442,0.149019231,-2.06455E-05,1.93725,0.40686655,1.93725,-0.966811597,1.93725,-0.016113527,0.149019231,1.24208E-05,1.93725,-0.177248791,1.93725,-1.031265736,1.93725,-0.128908217
0.149538462,1.05745E-05,1.944,0.072510868,1.944,-1.055436015,1.944,-0.221561,0.149538462,-1.76242E-05,1.944,0.241702899,1.944,-0.999038696,1.944,-0.346440822,0.149538462,-1.8967E-05,1.944,0.402838171,1.944,-0.966811597,1.944,-0.012085145,0.149538462,1.19173E-05,1.944,-0.177248791,1.944,-1.031265736,1.944,-0.132936597
0.150057692,1.32601E-05,1.95075,0.076539256,1.95075,-1.055436015,1.95075,-0.22558938,0.150057692,-1.49386E-05,1.95075,0.241702899,1.95075,-1.003067017,1.95075,-0.338384062,0.150057692,-1.32601E-05,1.95075,0.402838171,1.95075,-0.970839977,1.95075,-0.008056764,0.150057692,1.17494E-06,1.95075,-0.173220411,1.95075,-1.031265736,1.95075,-0.132936597
0.150576923,1.99741E-05,1.9575,0.080567636,1.9575,-1.047379255,1.9575,-0.22558938,0.150576923,-1.76242E-05,1.9575,0.241702899,1.9575,-0.999038696,1.9575,-0.334355682,0.150576923,-8.56031E-06,1.9575,0.402838171,1.9575,-0.970839977,1.9575,-0.004028382,0.150576923,-1.09102E-05,1.9575,-0.169192031,1.9575,-1.023208976,1.9575,-0.136964977
0.151096154,1.99741E-05,1.96425,0.076539256,1.96425,-1.047379255,1.96425,-0.21753262,0.151096154,-2.26596E-05,1.96425,0.237674519,1.96425,-1.003067017,1.96425,-0.338384062,0.151096154,-2.18204E-06,1.96425,0.398809791,1.96425,-0.966811597,1.96425,-0.004028382,0.151096154,-1.64492E-05,1.96425,-0.169192031,1.96425,-1.015152216,1.96425,-0.149050117
0.151615385,1.09102E-05,1.971,0.072510868,1.971,-1.051407576,1.971,-0.21753262,0.151615385,-2.97093E-05,1.971,0.22961776,1.971,-0.999038696,1.971,-0.350469202,0.151615385,2.34989E-06,1.971,0.402838171,1.971,-0.966811597,1.971,-0.008056764,0.151615385,-1.19173E-05,1.971,-0.169192031,1.971,-1.019180536,1.971,-0.136964977
0.152134615,5.87472E-06,1.97775,0.072510868,1.97775,-1.051407576,1.97775,-0.21753262,0.152134615,-3.81018E-05,1.97775,0.237674519,1.97775,-0.999038696,1.97775,-0.342412442,0.152134615,2.51774E-06,1.97775,0.402838171,1.97775,-0.966811597,1.97775,-0.016113527,0.152134615,-4.19623E-06,1.97775,-0.169192031,1.97775,-1.031265736,1.97775,-0.12085145
0.152653846,6.54612E-06,1.9845,0.076539256,1.9845,-1.055436015,1.9845,-0.22558938,0.152653846,-4.71656E-05,1.9845,0.245731279,1.9845,-0.999038696,1.9845,-0.330327302,0.152653846,3.52483E-06,1.9845,0.402838171,1.9845,-0.966811597,1.9845,-0.008056764,0.152653846,6.21042E-06,1.9845,-0.173220411,1.9845,-1.031265736,1.9845,-0.12085145
0.153173077,7.55322E-06,1.99125,0.084596016,1.99125,-1.051407576,1.99125,-0.22961776,0.153173077,-5.55581E-05,1.99125,0.249759674,1.99125,-0.995010257,1.99125,-0.346440822,0.153173077,6.54612E-06,1.99125,0.41492331,1.99125,-0.962783217,1.99125,-0.004028382,0.153173077,2.24918E-05,1.99125,-0.177248791,1.99125,-1.027237296,1.99125,-0.124879837
0.153692308,7.21752E-06,1.998,0.088624395,1.998,-1.047379255,1.998,-0.237674519,0.153692308,-5.47189E-05,1.998,0.257816434,1.998,-0.995010257,1.998,-0.338384062,0.153692308,8.22461E-06,1.998,0.42700845,1.998,-0.958754838,1.998,-0.008056764,0.153692308,3.22271E-05,1.998,-0.185305566,1.998,-1.015152216,1.998,-0.132936597
0.154211538,2.34989E-06,2.00475,0.088624395,2.00475,-1.047379255,2.00475,-0.237674519,0.154211538,-4.59907E-05,2.00475,0.257816434,2.00475,-0.999038696,2.00475,-0.338384062,0.154211538,6.54612E-06,2.00475,0.43103683,2.00475,-0.958754838,2.00475,-0.012085145,0.154211538,2.51774E-05,2.00475,-0.189333946,2.00475,-1.015152216,2.00475,-0.132936597
0.154730769,-3.52483E-06,2.0115,0.080567636,2.0115,-1.047379255,2.0115,-0.22558938,0.154730769,-4.24659E-05,2.0115,0.253788054,2.0115,-0.995010257,2.0115,-0.346440822,0.154730769,3.86053E-06,2.0115,0.41895169,2.0115,-0.958754838,2.0115,-0.008056764,0.154730769,9.23171E-06,2.0115,-0.189333946,2.0115,-1.015152216,2.0115,-0.128908217
0.15525,-1.84634E-06,2.01825,0.072510868,2.01825,-1.055436015,2.01825,-0.221561,0.15525,-4.17945E-05,2.01825,0.249759674,2.01825,-0.995010257,2.01825,-0.342412442,0.15525,4.86763E-06,2.01825,0.41089493,2.01825,-0.958754838,2.01825,-0.012085145,0.15525,-6.71397E-07,2.01825,-0.177248791,2.01825,-1.023208976,2.01825,-0.124879837
0.155769231,-8.39246E-07,2.025,0.076539256,2.025,-1.055436015,2.025,-0.22558938,0.155769231,-3.25628E-05,2.025,0.241702899,2.025,-0.999038696,2.025,-0.334355682,0.155769231,7.88891E-06,2.025,0.402838171,2.025,-0.962783217,2.025,-0.008056764,0.155769231,-2.68559E-06,2.025,-0.169192031,2.025,-1.027237296,2.025,-0.124879837
0.156288462,6.71397E-07,2.03175,0.080567636,2.03175,-1.047379255,2.03175,-0.22961776,0.156288462,-1.8967E-05,2.03175,0.237674519,2.03175,-0.999038696,2.03175,-0.338384062,0.156288462,1.0071E-05,2.03175,0.40686655,2.03175,-0.962783217,2.03175,-0.008056764,0.156288462,-2.18204E-06,2.03175,-0.169192031,2.03175,-1.023208976,2.03175,-0.128908217
0.156807692,9.06386E-06,2.0385,0.080567636,2.0385,-1.051407576,2.0385,-0.22558938,0.156807692,-6.88182E-06,2.0385,0.241702899,2.0385,-0.999038696,2.0385,-0.342412442,0.156807692,7.72107E-06,2.0385,0.41089493,2.0385,-0.962783217,2.0385,-0.008056764,0.156807692,-4.69978E-06,2.0385,-0.177248791,2.0385,-1.019180536,2.0385,-0.132936597
0.157326923,1.7792E-05,2.04525,0.080567636,2.04525,-1.051407576,2.04525,-0.22558938,0.157326923,-4.86763E-06,2.04525,0.245731279,2.04525,-0.995010257,2.04525,-0.342412442,0.157326923,3.18914E-06,2.04525,0.41089493,2.04525,-0.962783217,2.04525,-0.004028382,0.157326923,-9.9031E-06,2.04525,-0.185305566,2.04525,-1.023208976,2.04525,-0.132936597
0.157846154,3.07164E-05,2.052,0.080567636,2.052,-1.051407576,2.052,-0.22961776,0.157846154,-1.19173E-05,2.052,0.245731279,2.052,-0.995010257,2.052,-0.338384062,0.157846154,-1.51064E-06,2.052,0.41089493,2.052,-0.962783217,2.052,-0.016113527,0.157846154,-1.37636E-05,2.052,-0.185305566,2.052,-1.023208976,2.052,-0.128908217
0.158365385,4.38087E-05,2.05875,0.076539256,2.05875,-1.047379255,2.05875,-0.22961776,0.158365385,-1.86313E-05,2.05875,0.245731279,2.05875,-0.990981877,2.05875,-0.342412442,0.158365385,-1.84634E-06,2.05875,0.41089493,2.05875,-0.962783217,2.05875,-0.012085145,0.158365385,-1.76242E-05,2.05875,-0.185305566,2.05875,-1.019180536,2.05875,-0.132936597
0.158884615,4.02838E-05,2.0655,0.072510868,2.0655,-1.047379255,2.0655,-0.221561,0.158884615,-1.99741E-05,2.0655,0.241702899,2.0655,-0.995010257,2.0655,-0.334355682,0.158884615,2.51774E-06,2.0655,0.402838171,2.0655,-0.958754838,2.0655,-0.016113527,0.158884615,-1.7792E-05,2.0655,-0.185305566,2.0655,-1.019180536,2.0655,-0.140993357
0.159403846,2.80308E-05,2.07225,0.068482488,2.07225,-1.043350816,2.07225,-0.221561,0.159403846,-1.96384E-05,2.07225,0.22961776,2.07225,-0.999038696,2.07225,-0.334355682,0.159403846,5.20333E-06,2.07225,0.394781411,2.07225,-0.962783217,2.07225,-0.008056764,0.159403846,-1.62814E-05,2.07225,-0.181277171,2.07225,-1.019180536,2.07225,-0.145021737
0.159923077,1.72885E-05,2.079,0.064454108,2.079,-1.043350816,2.079,-0.21753262,0.159923077,-1.81277E-05,2.079,0.221561,2.079,-0.990981877,2.079,-0.334355682,0.159923077,5.20333E-06,2.079,0.390753031,2.079,-0.970839977,2.079,-0.008056764,0.159923077,-1.76242E-05,2.079,-0.173220411,2.079,-1.015152216,2.079,-0.140993357
0.160442308,6.54612E-06,2.08575,0.068482488,2.08575,-1.047379255,2.08575,-0.213504225,0.160442308,-1.87991E-05,2.08575,0.22558938,2.08575,-0.995010257,2.08575,-0.338384062,0.160442308,6.37827E-06,2.08575,0.386724651,2.08575,-0.966811597,2.08575,-0.004028382,0.160442308,-1.27565E-05,2.08575,-0.169192031,2.08575,-1.023208976,2.08575,-0.140993357
0.160961538,-1.02388E-05,2.0925,0.068482488,2.0925,-1.051407576,2.0925,-0.213504225,0.160961538,-1.93027E-05,2.0925,0.22961776,2.0925,-1.003067017,2.0925,-0.338384062,0.160961538,7.88891E-06,2.0925,0.390753031,2.0925,-0.974868357,2.0925,-0.012085145,0.160961538,-6.21042E-06,2.0925,-0.173220411,2.0925,-1.031265736,2.0925,-0.140993357
0.161480769,-2.70237E-05,2.09925,0.072510868,2.09925,-1.059464335,2.09925,-0.21753262,0.161480769,-2.09812E-05,2.09925,0.22961776,2.09925,-1.007095456,2.09925,-0.342412442,0.161480769,5.87472E-06,2.09925,0.394781411,2.09925,-0.974868357,2.09925,-0.008056764,0.161480769,-5.20333E-06,2.09925,-0.173220411,2.09925,-1.031265736,2.09925,-0.145021737
0.162,-3.60876E-05,2.106,0.072510868,2.106,-1.059464335,2.106,-0.21753262,0.162,-2.38346E-05,2.106,0.237674519,2.106,-1.003067017,2.106,-0.342412442,0.162,1.0071E-06,2.106,0.398809791,2.106,-0.966811597,2.106,-0.008056764,0.162,-4.86763E-06,2.106,-0.177248791,2.106,-1.031265736,2.106,-0.145021737
0.162519231,-4.31373E-05,2.11275,0.080567636,2.11275,-1.051407576,2.11275,-0.221561,0.162519231,-2.53452E-05,2.11275,0.245731279,2.11275,-1.003067017,2.11275,-0.346440822,0.162519231,-4.53193E-06,2.11275,0.402838171,2.11275,-0.970839977,2.11275,-0.012085145,0.162519231,-5.70687E-06,2.11275,-0.177248791,2.11275,-1.027237296,2.11275,-0.140993357
0.163038462,-5.48867E-05,2.1195,0.076539256,2.1195,-1.051407576,2.1195,-0.221561,0.163038462,-2.61845E-05,2.1195,0.245731279,2.1195,-0.999038696,2.1195,-0.350469202,0.163038462,-8.56031E-06,2.1195,0.40686655,2.1195,-0.966811597,2.1195,-0.012085145,0.163038462,-6.88182E-06,2.1195,-0.173220411,2.1195,-1.027237296,2.1195,-0.153078511
0.163557692,-6.47898E-05,2.12625,0.072510868,2.12625,-1.047379255,2.12625,-0.21753262,0.163557692,-2.65202E-05,2.12625,0.237674519,2.12625,-0.999038696,2.12625,-0.350469202,0.163557692,-9.23171E-06,2.12625,0.40686655,2.12625,-0.966811597,2.12625,-0.012085145,0.163557692,-9.39956E-06,2.12625,-0.165163651,2.12625,-1.023208976,2.12625,-0.157106891
0.164076923,-6.63004E-05,2.133,0.068482488,2.133,-1.047379255,2.133,-0.213504225,0.164076923,-2.56809E-05,2.133,0.22961776,2.133,-0.995010257,2.133,-0.346440822,0.164076923,-3.86053E-06,2.133,0.398809791,2.133,-0.966811597,2.133,-0.020141909,0.164076923,-1.05745E-05,2.133,-0.165163651,2.133,-1.023208976,2.133,-0.149050117
0.164596154,-6.63004E-05,2.13975,0.056397345,2.13975,-1.055436015,2.13975,-0.209475845,0.164596154,-2.18204E-05,2.13975,0.221561,2.13975,-0.999038696,2.13975,-0.342412442,0.164596154,-4.53193E-06,2.13975,0.386724651,2.13975,-0.966811597,2.13975,-0.020141909,0.164596154,-1.10781E-05,2.13975,-0.161135271,2.13975,-1.027237296,2.13975,-0.136964977
0.165115385,-6.86503E-05,2.1465,0.056397345,2.1465,-1.055436015,2.1465,-0.213504225,0.165115385,-1.98062E-05,2.1465,0.221561,2.1465,-0.999038696,2.1465,-0.346440822,0.165115385,-2.34989E-05,2.1465,0.382696271,2.1465,-0.970839977,2.1465,-0.020141909,0.165115385,-1.0071E-05,2.1465,-0.161135271,2.1465,-1.027237296,2.1465,-0.132936597
0.165634615,-6.73075E-05,2.15325,0.060425725,2.15325,-1.051407576,2.15325,-0.21753262,0.165634615,-2.19883E-05,2.15325,0.22961776,2.15325,-1.003067017,2.15325,-0.346440822,0.165634615,-4.07874E-05,2.15325,0.394781411,2.15325,-0.970839977,2.15325,-0.020141909,0.165634615,-9.06386E-06,2.15325,-0.165163651,2.15325,-1.031265736,2.15325,-0.136964977
0.166153846,-5.85794E-05,2.16,0.064454108,2.16,-1.055436015,2.16,-0.221561,0.166153846,-2.18204E-05,2.16,0.23364614,2.16,-1.003067017,2.16,-0.350469202,0.166153846,-3.77661E-05,2.16,0.398809791,2.16,-0.966811597,2.16,-0.020141909,0.166153846,-1.15816E-05,2.16,-0.169192031,2.16,-1.027237296,2.16,-0.145021737
0.166673077,-4.85084E-05,2.16675,0.072510868,2.16675,-1.051407576,2.16675,-0.221561,0.166673077,-1.96384E-05,2.16675,0.241702899,2.16675,-0.999038696,2.16675,-0.350469202,0.166673077,-2.23239E-05,2.16675,0.402838171,2.16675,-0.966811597,2.16675,-0.020141909,0.166673077,-1.71206E-05,2.16675,-0.169192031,2.16675,-1.023208976,2.16675,-0.153078511
0.167192308,-4.04517E-05,2.1735,0.076539256,2.1735,-1.051407576,2.1735,-0.221561,0.167192308,-1.81277E-05,2.1735,0.237674519,2.1735,-0.999038696,2.1735,-0.350469202,0.167192308,-5.20333E-06,2.1735,0.40686655,2.1735,-0.962783217,2.1735,-0.012085145,0.167192308,-1.71206E-05,2.1735,-0.165163651,2.1735,-1.019180536,2.1735,-0.149050117
0.167711538,-3.30663E-05,2.18025,0.072510868,2.18025,-1.051407576,2.18025,-0.221561,0.167711538,-1.7792E-05,2.18025,0.237674519,2.18025,-0.995010257,2.18025,-0.354497582,0.167711538,1.05745E-05,2.18025,0.40686655,2.18025,-0.962783217,2.18025,-0.016113527,0.167711538,-1.35958E-05,2.18025,-0.165163651,2.18025,-1.027237296,2.18025,-0.149050117
0.168230769,-2.26596E-05,2.187,0.072510868,2.187,-1.047379255,2.187,-0.21753262,0.168230769,-1.98062E-05,2.187,0.237674519,2.187,-0.995010257,2.187,-0.342412442,0.168230769,2.3331E-05,2.187,0.402838171,2.187,-0.966811597,2.187,-0.012085145,0.168230769,-1.25887E-05,2.187,-0.165163651,2.187,-1.027237296,2.187,-0.149050117
0.16875,-1.02388E-05,2.19375,0.076539256,2.19375,-1.051407576,2.19375,-0.21753262,0.16875,-2.31632E-05,2.19375,0.237674519,2.19375,-0.999038696,2.19375,-0.342412442,0.16875,2.90379E-05,2.19375,0.398809791,2.19375,-0.966811597,2.19375,-0.012085145,0.16875,-1.52743E-05,2.19375,-0.165163651,2.19375,-1.031265736,2.19375,-0.149050117
0.169269231,1.67849E-06,2.2005,0.068482488,2.2005,-1.055436015,2.2005,-0.213504225,0.169269231,-2.63523E-05,2.2005,0.22961776,2.2005,-1.003067017,2.2005,-0.350469202,0.169269231,3.0045E-05,2.2005,0.394781411,2.2005,-0.966811597,2.2005,-0.012085145,0.169269231,-1.59457E-05,2.2005,-0.165163651,2.2005,-1.027237296,2.2005,-0.153078511
0.169788462,1.32601E-05,2.20725,0.064454108,2.20725,-1.055436015,2.20725,-0.213504225,0.169788462,-2.70237E-05,2.20725,0.23364614,2.20725,-0.999038696,2.20725,-0.346440822,0.169788462,2.6688E-05,2.20725,0.394781411,2.20725,-0.970839977,2.20725,-0.012085145,0.169788462,-1.66171E-05,2.20725,-0.169192031,2.20725,-1.031265736,2.20725,-0.149050117
0.170307692,2.26596E-05,2.214,0.072510868,2.214,-1.047379255,2.214,-0.221561,0.170307692,-2.56809E-05,2.214,0.23364614,2.214,-0.995010257,2.214,-0.342412442,0.170307692,2.65202E-05,2.214,0.398809791,2.214,-0.970839977,2.214,-0.008056764,0.170307692,-1.62814E-05,2.214,-0.169192031,2.214,-1.027237296,2.214,-0.149050117
0.170826923,2.40024E-05,2.22075,0.072510868,2.22075,-1.051407576,2.22075,-0.221561,0.170826923,-2.6688E-05,2.22075,0.22961776,2.22075,-0.999038696,2.22075,-0.346440822,0.170826923,2.73594E-05,2.22075,0.398809791,2.22075,-0.962783217,2.22075,-0.008056764,0.170826923,-1.72885E-05,2.22075,-0.173220411,2.22075,-1.023208976,2.22075,-0.157106891
0.171346154,1.8967E-05,2.2275,0.072510868,2.2275,-1.055436015,2.2275,-0.213504225,0.171346154,-3.0045E-05,2.2275,0.23364614,2.2275,-1.003067017,2.2275,-0.354497582,0.171346154,2.41703E-05,2.2275,0.402838171,2.2275,-0.966811597,2.2275,-0.004028382,0.171346154,-1.91348E-05,2.2275,-0.177248791,2.2275,-1.023208976,2.2275,-0.157106891
0.171865385,1.12459E-05,2.23425,0.076539256,2.23425,-1.059464335,2.23425,-0.221561,0.171865385,-3.3402E-05,2.23425,0.245731279,2.23425,-1.007095456,2.23425,-0.346440822,0.171865385,1.59457E-05,2.23425,0.402838171,2.23425,-0.974868357,2.23425,-0.012085145,0.171865385,-1.81277E-05,2.23425,-0.181277171,2.23425,-1.031265736,2.23425,-0.149050117
0.172384615,7.88891E-06,2.241,0.080567636,2.241,-1.055436015,2.241,-0.22961776,0.172384615,-3.42412E-05,2.241,0.241702899,2.241,-1.007095456,2.241,-0.346440822,0.172384615,9.56741E-06,2.241,0.40686655,2.241,-0.974868357,2.241,-0.012085145,0.172384615,-1.49386E-05,2.241,-0.181277171,2.241,-1.031265736,2.241,-0.149050117
0.172903846,8.56031E-06,2.24775,0.076539256,2.24775,-1.055436015,2.24775,-0.22558938,0.172903846,-3.10521E-05,2.24775,0.23364614,2.24775,-1.003067017,2.24775,-0.346440822,0.172903846,6.54612E-06,2.24775,0.40686655,2.24775,-0.970839977,2.24775,-0.008056764,0.172903846,-1.29244E-05,2.24775,-0.177248791,2.24775,-1.027237296,2.24775,-0.157106891
0.173423077,9.23171E-06,2.2545,0.064454108,2.2545,-1.059464335,2.2545,-0.213504225,0.173423077,-2.76951E-05,2.2545,0.22558938,2.2545,-1.003067017,2.2545,-0.354497582,0.173423077,2.51774E-06,2.2545,0.398809791,2.2545,-0.966811597,2.2545,-0.012085145,0.173423077,-1.25887E-05,2.2545,-0.169192031,2.2545,-1.027237296,2.2545,-0.157106891
0.173942308,3.18914E-06,2.26125,0.064454108,2.26125,-1.055436015,2.26125,-0.21753262,0.173942308,-3.03807E-05,2.26125,0.23364614,2.26125,-0.999038696,2.26125,-0.350469202,0.173942308,1.51064E-06,2.26125,0.394781411,2.26125,-0.970839977,2.26125,-0.020141909,0.173942308,-1.2253E-05,2.26125,-0.165163651,2.26125,-1.027237296,2.26125,-0.149050117
0.174461538,-5.53903E-06,2.268,0.060425725,2.268,-1.047379255,2.268,-0.21753262,0.174461538,-3.54162E-05,2.268,0.22961776,2.268,-0.995010257,2.268,-0.354497582,0.174461538,3.02129E-06,2.268,0.390753031,2.268,-0.970839977,2.268,-0.020141909,0.174461538,-1.30922E-05,2.268,-0.161135271,2.268,-1.027237296,2.268,-0.145021737
0.174980769,-5.87472E-06,2.27475,0.060425725,2.27475,-1.043350816,2.27475,-0.213504225,0.174980769,-3.70947E-05,2.27475,0.22961776,2.27475,-0.995010257,2.27475,-0.354497582,0.174980769,3.18914E-06,2.27475,0.390753031,2.27475,-0.970839977,2.27475,-0.016113527,0.174980769,-1.40993E-05,2.27475,-0.157106891,2.27475,-1.019180536,2.27475,-0.145021737
0.1755,-5.87472E-06,2.2815,0.056397345,2.2815,-1.051407576,2.2815,-0.205447465,0.1755,-4.14588E-05,2.2815,0.221561,2.2815,-0.999038696,2.2815,-0.354497582,0.1755,1.84634E-06,2.2815,0.382696271,2.2815,-0.970839977,2.2815,-0.020141909,0.1755,-1.35958E-05,2.2815,-0.157106891,2.2815,-1.019180536,2.2815,-0.145021737
0.176019231,-1.10781E-05,2.28825,0.052368961,2.28825,-1.055436015,2.28825,-0.205447465,0.176019231,-4.51514E-05,2.28825,0.21753262,2.28825,-1.003067017,2.28825,-0.358525962,0.176019231,-2.18204E-06,2.28825,0.382696271,2.28825,-0.974868357,2.28825,-0.024170291,0.176019231,-1.24208E-05,2.28825,-0.153078511,2.28825,-1.023208976,2.28825,-0.145021737
0.176538462,-1.46029E-05,2.295,0.052368961,2.295,-1.055436015,2.295,-0.213504225,0.176538462,-4.448E-05,2.295,0.21753262,2.295,-1.003067017,2.295,-0.354497582,0.176538462,-3.02129E-06,2.295,0.386724651,2.295,-0.978896737,2.295,-0.024170291,0.176538462,-1.15816E-05,2.295,-0.149050117,2.295,-1.031265736,2.295,-0.149050117
0.177057692,-1.29244E-05,2.30175,0.056397345,2.30175,-1.055436015,2.30175,-0.213504225,0.177057692,-4.24659E-05,2.30175,0.22558938,2.30175,-0.999038696,2.30175,-0.358525962,0.177057692,8.39246E-07,2.30175,0.394781411,2.30175,-0.974868357,2.30175,-0.036255434,0.177057692,-1.25887E-05,2.30175,-0.153078511,2.30175,-1.031265736,2.30175,-0.149050117
0.177576923,-8.39246E-06,2.3085,0.060425725,2.3085,-1.055436015,2.3085,-0.209475845,0.177576923,-4.11231E-05,2.3085,0.22961776,2.3085,-0.999038696,2.3085,-0.358525962,0.177576923,3.52483E-06,2.3085,0.394781411,2.3085,-0.970839977,2.3085,-0.040283818,0.177576923,-7.04967E-06,2.3085,-0.153078511,2.3085,-1.027237296,2.3085,-0.149050117
0.178096154,-9.06386E-06,2.31525,0.056397345,2.31525,-1.055436015,2.31525,-0.205447465,0.178096154,-3.94446E-05,2.31525,0.221561,2.31525,-0.995010257,2.31525,-0.362554342,0.178096154,-6.71397E-07,2.31525,0.398809791,2.31525,-0.970839977,2.31525,-0.032227054,0.178096154,-2.34989E-06,2.31525,-0.149050117,2.31525,-1.023208976,2.31525,-0.149050117
0.178615385,-1.62814E-05,2.322,0.052368961,2.322,-1.055436015,2.322,-0.213504225,0.178615385,-4.04517E-05,2.322,0.22558938,2.322,-0.995010257,2.322,-0.362554342,0.178615385,-7.21752E-06,2.322,0.398809791,2.322,-0.974868357,2.322,-0.028198672,0.178615385,-4.86763E-06,2.322,-0.145021737,2.322,-1.027237296,2.322,-0.145021737
0.179134615,-2.03098E-05,2.32875,0.052368961,2.32875,-1.055436015,2.32875,-0.213504225,0.179134615,-4.17945E-05,2.32875,0.221561,2.32875,-1.003067017,2.32875,-0.358525962,0.179134615,-7.88891E-06,2.32875,0.398809791,2.32875,-0.970839977,2.32875,-0.028198672,0.179134615,-7.72107E-06,2.32875,-0.140993357,2.32875,-1.027237296,2.32875,-0.149050117
0.179653846,-1.98062E-05,2.3355,0.052368961,2.3355,-1.055436015,2.3355,-0.213504225,0.179653846,-4.04517E-05,2.3355,0.21753262,2.3355,-1.003067017,2.3355,-0.366582751,0.179653846,-5.70687E-06,2.3355,0.394781411,2.3355,-0.974868357,2.3355,-0.028198672,0.179653846,-6.21042E-06,2.3355,-0.140993357,2.3355,-1.031265736,2.3355,-0.145021737
0.180173077,-1.64492E-05,2.34225,0.056397345,2.34225,-1.055436015,2.34225,-0.209475845,0.180173077,-3.70947E-05,2.34225,0.23364614,2.34225,-0.995010257,2.34225,-0.366582751,0.180173077,-5.03548E-06,2.34225,0.394781411,2.34225,-0.966811597,2.34225,-0.028198672,0.180173077,-5.03548E-06,2.34225,-0.145021737,2.34225,-1.027237296,2.34225,-0.140993357
0.180692308,-1.15816E-05,2.349,0.064454108,2.349,-1.051407576,2.349,-0.213504225,0.180692308,-3.10521E-05,2.349,0.237674519,2.349,-0.995010257,2.349,-0.358525962,0.180692308,-4.86763E-06,2.349,0.394781411,2.349,-0.966811597,2.349,-0.028198672,0.180692308,-7.55322E-06,2.349,-0.153078511,2.349,-1.023208976,2.349,-0.145021737
0.181211538,-8.89601E-06,2.35575,0.068482488,2.35575,-1.047379255,2.35575,-0.21753262,0.181211538,-2.80308E-05,2.35575,0.237674519,2.35575,-0.995010257,2.35575,-0.358525962,0.181211538,-5.87472E-06,2.35575,0.398809791,2.35575,-0.962783217,2.35575,-0.028198672,0.181211538,-1.29244E-05,2.35575,-0.153078511,2.35575,-1.023208976,2.35575,-0.149050117
0.181730769,-1.05745E-05,2.3625,0.068482488,2.3625,-1.047379255,2.3625,-0.21753262,0.181730769,-2.73594E-05,2.3625,0.22558938,2.3625,-0.995010257,2.3625,-0.358525962,0.181730769,-6.54612E-06,2.3625,0.398809791,2.3625,-0.962783217,2.3625,-0.024170291,0.181730769,-1.30922E-05,2.3625,-0.149050117,2.3625,-1.019180536,2.3625,-0.153078511
0.18225,-1.10781E-05,2.36925,0.064454108,2.36925,-1.051407576,2.36925,-0.205447465,0.18225,-2.70237E-05,2.36925,0.221561,2.36925,-0.995010257,2.36925,-0.358525962,0.18225,-4.19623E-06,2.36925,0.390753031,2.36925,-0.970839977,2.36925,-0.016113527,0.18225,-1.05745E-05,2.36925,-0.145021737,2.36925,-1.019180536,2.36925,-0.153078511
0.182769231,-7.38537E-06,2.376,0.060425725,2.376,-1.059464335,2.376,-0.205447465,0.182769231,-2.70237E-05,2.376,0.221561,2.376,-0.995010257,2.376,-0.362554342,0.182769231,-5.87472E-06,2.376,0.390753031,2.376,-0.970839977,2.376,-0.024170291,0.182769231,-7.21752E-06,2.376,-0.149050117,2.376,-1.031265736,2.376,-0.149050117
0.183288462,-3.18914E-06,2.38275,0.060425725,2.38275,-1.059464335,2.38275,-0.213504225,0.183288462,-2.56809E-05,2.38275,0.22558938,2.38275,-1.003067017,2.38275,-0.358525962,0.183288462,-1.29244E-05,2.38275,0.394781411,2.38275,-0.978896737,2.38275,-0.028198672,0.183288462,-8.22461E-06,2.38275,-0.153078511,2.38275,-1.035294056,2.38275,-0.153078511
0.183807692,2.18204E-06,2.3895,0.060425725,2.3895,-1.059464335,2.3895,-0.213504225,0.183807692,-1.96384E-05,2.3895,0.22558938,2.3895,-1.007095456,2.3895,-0.350469202,0.183807692,-1.49386E-05,2.3895,0.394781411,2.3895,-0.978896737,2.3895,-0.024170291,0.183807692,-1.20851E-05,2.3895,-0.157106891,2.3895,-1.035294056,2.3895,-0.157106891
0.184326923,4.19623E-06,2.39625,0.056397345,2.39625,-1.055436015,2.39625,-0.201419085,0.184326923,-1.15816E-05,2.39625,0.213504225,2.39625,-1.003067017,2.39625,-0.362554342,0.184326923,-1.2253E-05,2.39625,0.386724651,2.39625,-0.978896737,2.39625,-0.024170291,0.184326923,-1.4435E-05,2.39625,-0.153078511,2.39625,-1.027237296,2.39625,-0.157106891
0.184846154,3.18914E-06,2.403,0.052368961,2.403,-1.059464335,2.403,-0.193362325,0.184846154,-5.53903E-06,2.403,0.209475845,2.403,-1.007095456,2.403,-0.362554342,0.184846154,-8.39246E-06,2.403,0.374639511,2.403,-0.978896737,2.403,-0.024170291,0.184846154,-1.59457E-05,2.403,-0.145021737,2.403,-1.027237296,2.403,-0.157106891
0.185365385,5.20333E-06,2.40975,0.048340581,2.40975,-1.063492775,2.40975,-0.201419085,0.185365385,-4.19623E-06,2.40975,0.209475845,2.40975,-1.007095456,2.40975,-0.362554342,0.185365385,-3.35698E-06,2.40975,0.370611131,2.40975,-0.982925117,2.40975,-0.028198672,0.185365385,-1.62814E-05,2.40975,-0.140993357,2.40975,-1.035294056,2.40975,-0.161135271
0.185884615,5.87472E-06,2.4165,0.048340581,2.4165,-1.059464335,2.4165,-0.201419085,0.185884615,-6.54612E-06,2.4165,0.205447465,2.4165,-1.007095456,2.4165,-0.358525962,0.185884615,-3.35698E-06,2.4165,0.366582751,2.4165,-0.986953497,2.4165,-0.028198672,0.185884615,-1.72885E-05,2.4165,-0.140993357,2.4165,-1.035294056,2.4165,-0.157106891
0.186403846,2.51774E-06,2.42325,0.044312198,2.42325,-1.055436015,2.42325,-0.193362325,0.186403846,-8.56031E-06,2.42325,0.201419085,2.42325,-1.011123776,2.42325,-0.362554342,0.186403846,-5.03548E-06,2.42325,0.366582751,2.42325,-0.986953497,2.42325,-0.028198672,0.186403846,-1.84634E-05,2.42325,-0.140993357,2.42325,-1.035294056,2.42325,-0.157106891
0.186923077,1.51064E-06,2.43,0.036255434,2.43,-1.051407576,2.43,-0.189333946,0.186923077,-8.22461E-06,2.43,0.205447465,2.43,-1.003067017,2.43,-0.366582751,0.186923077,-7.21752E-06,2.43,0.362554342,2.43,-0.982925117,2.43,-0.032227054,0.186923077,-2.36667E-05,2.43,-0.145021737,2.43,-1.027237296,2.43,-0.161135271
0.187442308,1.17494E-06,2.43675,0.032227054,2.43675,-1.047379255,2.43675,-0.193362325,0.187442308,-1.09102E-05,2.43675,0.205447465,2.43675,-0.999038696,2.43675,-0.366582751,0.187442308,-8.89601E-06,2.43675,0.358525962,2.43675,-0.978896737,2.43675,-0.032227054,0.187442308,-3.17235E-05,2.43675,-0.140993357,2.43675,-1.023208976,2.43675,-0.157106891
0.187961538,-1.67849E-07,2.4435,0.032227054,2.4435,-1.043350816,2.4435,-0.197390705,0.187961538,-1.59457E-05,2.4435,0.205447465,2.4435,-0.995010257,2.4435,-0.370611131,0.187961538,-8.89601E-06,2.4435,0.366582751,2.4435,-0.978896737,2.4435,-0.040283818,0.187961538,-3.87732E-05,2.4435,-0.136964977,2.4435,-1.019180536,2.4435,-0.149050117
0.188480769,-1.51064E-06,2.45025,0.036255434,2.45025,-1.043350816,2.45025,-0.197390705,0.188480769,-2.18204E-05,2.45025,0.209475845,2.45025,-0.995010257,2.45025,-0.366582751,0.188480769,-8.89601E-06,2.45025,0.366582751,2.45025,-0.978896737,2.45025,-0.048340581,0.188480769,-3.77661E-05,2.45025,-0.136964977,2.45025,-1.019180536,2.45025,-0.149050117
0.189,1.67849E-07,2.457,0.032227054,2.457,-1.047379255,2.457,-0.193362325,0.189,-2.43381E-05,2.457,0.197390705,2.457,-0.999038696,2.457,-0.370611131,0.189,-7.72107E-06,2.457,0.366582751,2.457,-0.978896737,2.457,-0.040283818,0.189,-3.18914E-05,2.457,-0.132936597,2.457,-1.023208976,2.457,-0.149050117
0.189519231,1.17494E-06,2.46375,0.028198672,2.46375,-1.051407576,2.46375,-0.189333946,0.189519231,-2.70237E-05,2.46375,0.201419085,2.46375,-0.999038696,2.46375,-0.378667891,0.189519231,-5.20333E-06,2.46375,0.366582751,2.46375,-0.982925117,2.46375,-0.052368961,0.189519231,-2.50095E-05,2.46375,-0.128908217,2.46375,-1.031265736,2.46375,-0.153078511
0.190038462,-1.84634E-06,2.4705,0.028198672,2.4705,-1.059464335,2.4705,-0.189333946,0.190038462,-3.60876E-05,2.4705,0.209475845,2.4705,-1.007095456,2.4705,-0.366582751,0.190038462,-4.19623E-06,2.4705,0.366582751,2.4705,-0.990981877,2.4705,-0.052368961,0.190038462,-2.1149E-05,2.4705,-0.124879837,2.4705,-1.035294056,2.4705,-0.157106891
0.190557692,-6.04257E-06,2.47725,0.032227054,2.47725,-1.059464335,2.47725,-0.193362325,0.190557692,-4.58228E-05,2.47725,0.197390705,2.47725,-1.007095456,2.47725,-0.370611131,0.190557692,-4.19623E-06,2.47725,0.366582751,2.47725,-0.995010257,2.47725,-0.044312198,0.190557692,-1.93027E-05,2.47725,-0.124879837,2.47725,-1.043350816,2.47725,-0.153078511
0.191076923,-5.53903E-06,2.484,0.036255434,2.484,-1.063492775,2.484,-0.189333946,0.191076923,-5.08583E-05,2.484,0.201419085,2.484,-1.007095456,2.484,-0.374639511,0.191076923,-7.04967E-06,2.484,0.370611131,2.484,-0.990981877,2.484,-0.044312198,0.191076923,-1.09102E-05,2.484,-0.124879837,2.484,-1.039322495,2.484,-0.153078511
0.191596154,-4.19623E-06,2.49075,0.028198672,2.49075,-1.059464335,2.49075,-0.189333946,0.191596154,-5.08583E-05,2.49075,0.201419085,2.49075,-1.003067017,2.49075,-0.378667891,0.191596154,-6.88182E-06,2.49075,0.366582751,2.49075,-0.986953497,2.49075,-0.044312198,0.191596154,2.85344E-06,2.49075,-0.124879837,2.49075,-1.035294056,2.49075,-0.149050117
0.192115385,-6.88182E-06,2.4975,0.032227054,2.4975,-1.055436015,2.4975,-0.189333946,0.192115385,-5.22011E-05,2.4975,0.205447465,2.4975,-1.007095456,2.4975,-0.370611131,0.192115385,-8.39246E-07,2.4975,0.366582751,2.4975,-0.990981877,2.4975,-0.044312198,0.192115385,8.89601E-06,2.4975,-0.128908217,2.4975,-1.031265736,2.4975,-0.153078511
0.192634615,-8.89601E-06,2.50425,0.032227054,2.50425,-1.051407576,2.50425,-0.189333946,0.192634615,-5.25368E-05,2.50425,0.201419085,2.50425,-0.999038696,2.50425,-0.374639511,0.192634615,8.39246E-07,2.50425,0.366582751,2.50425,-0.986953497,2.50425,-0.044312198,0.192634615,5.87472E-06,2.50425,-0.128908217,2.50425,-1.027237296,2.50425,-0.157106891
0.193153846,-9.23171E-06,2.511,0.036255434,2.511,-1.055436015,2.511,-0.193362325,0.193153846,-5.15297E-05,2.511,0.209475845,2.511,-1.003067017,2.511,-0.370611131,0.193153846,1.84634E-06,2.511,0.366582751,2.511,-0.982925117,2.511,-0.040283818,0.193153846,2.85344E-06,2.511,-0.132936597,2.511,-1.027237296,2.511,-0.157106891
0.193673077,-1.09102E-05,2.51775,0.040283818,2.51775,-1.051407576,2.51775,-0.193362325,0.193673077,-5.38796E-05,2.51775,0.205447465,2.51775,-1.003067017,2.51775,-0.366582751,0.193673077,2.51774E-06,2.51775,0.370611131,2.51775,-0.986953497,2.51775,-0.040283818,0.193673077,-1.67849E-07,2.51775,-0.136964977,2.51775,-1.031265736,2.51775,-0.149050117
0.194192308,-1.09102E-05,2.5245,0.040283818,2.5245,-1.051407576,2.5245,-0.193362325,0.194192308,-5.42153E-05,2.5245,0.205447465,2.5245,-0.999038696,2.5245,-0.374639511,0.194192308,1.51064E-06,2.5245,0.370611131,2.5245,-0.986953497,2.5245,-0.040283818,0.194192308,-1.17494E-06,2.5245,-0.132936597,2.5245,-1.035294056,2.5245,-0.153078511
0.194711538,-1.02388E-05,2.53125,0.036255434,2.53125,-1.051407576,2.53125,-0.189333946,0.194711538,-5.28725E-05,2.53125,0.205447465,2.53125,-0.999038696,2.53125,-0.366582751,0.194711538,-1.67849E-07,2.53125,0.366582751,2.53125,-0.978896737,2.53125,-0.044312198,0.194711538,3.02129E-06,2.53125,-0.124879837,2.53125,-1.027237296,2.53125,-0.157106891
0.195230769,-1.2253E-05,2.538,0.036255434,2.538,-1.047379255,2.538,-0.189333946,0.195230769,-5.25368E-05,2.538,0.197390705,2.538,-0.999038696,2.538,-0.366582751,0.195230769,-1.34279E-06,2.538,0.362554342,2.538,-0.986953497,2.538,-0.036255434,0.195230769,6.04257E-06,2.538,-0.12085145,2.538,-1.027237296,2.538,-0.157106891
0.19575,-1.39315E-05,2.54475,0.036255434,2.54475,-1.051407576,2.54475,-0.193362325,0.19575,-5.33761E-05,2.54475,0.197390705,2.54475,-1.003067017,2.54475,-0.370611131,0.19575,-4.53193E-06,2.54475,0.366582751,2.54475,-0.986953497,2.54475,-0.040283818,0.19575,5.03548E-06,2.54475,-0.124879837,2.54475,-1.031265736,2.54475,-0.157106891
0.196269231,-1.42672E-05,2.5515,0.040283818,2.5515,-1.051407576,2.5515,-0.193362325,0.196269231,-5.65652E-05,2.5515,0.205447465,2.5515,-1.007095456,2.5515,-0.370611131,0.196269231,-8.89601E-06,2.5515,0.366582751,2.5515,-0.986953497,2.5515,-0.044312198,0.196269231,-1.67849E-07,2.5515,-0.128908217,2.5515,-1.031265736,2.5515,-0.153078511
0.196788462,-1.15816E-05,2.55825,0.036255434,2.55825,-1.059464335,2.55825,-0.193362325,0.196788462,-5.48867E-05,2.55825,0.205447465,2.55825,-1.007095456,2.55825,-0.366582751,0.196788462,-1.14137E-05,2.55825,0.366582751,2.55825,-0.990981877,2.55825,-0.040283818,0.196788462,-3.69268E-06,2.55825,-0.132936597,2.55825,-1.031265736,2.55825,-0.153078511
0.197307692,-6.88182E-06,2.565,0.036255434,2.565,-1.055436015,2.565,-0.189333946,0.197307692,-4.83406E-05,2.565,0.201419085,2.565,-1.003067017,2.565,-0.378667891,0.197307692,-1.29244E-05,2.565,0.366582751,2.565,-0.995010257,2.565,-0.040283818,0.197307692,1.51064E-06,2.565,-0.128908217,2.565,-1.031265736,2.565,-0.161135271
0.197826923,-6.37827E-06,2.57175,0.032227054,2.57175,-1.055436015,2.57175,-0.189333946,0.197826923,-4.41444E-05,2.57175,0.201419085,2.57175,-1.003067017,2.57175,-0.374639511,0.197826923,-1.12459E-05,2.57175,0.362554342,2.57175,-0.986953497,2.57175,-0.044312198,0.197826923,5.70687E-06,2.57175,-0.128908217,2.57175,-1.031265736,2.57175,-0.165163651
0.198346154,-8.72816E-06,2.5785,0.036255434,2.5785,-1.059464335,2.5785,-0.189333946,0.198346154,-4.31373E-05,2.5785,0.201419085,2.5785,-0.999038696,2.5785,-0.366582751,0.198346154,-5.03548E-06,2.5785,0.362554342,2.5785,-0.986953497,2.5785,-0.040283818,0.198346154,2.18204E-06,2.5785,-0.124879837,2.5785,-1.031265736,2.5785,-0.157106891
0.198865385,-7.55322E-06,2.58525,0.040283818,2.58525,-1.055436015,2.58525,-0.197390705,0.198865385,-4.07874E-05,2.58525,0.201419085,2.58525,-1.003067017,2.58525,-0.370611131,0.198865385,-1.67849E-06,2.58525,0.366582751,2.58525,-0.982925117,2.58525,-0.036255434,0.198865385,-4.53193E-06,2.58525,-0.124879837,2.58525,-1.031265736,2.58525,-0.153078511
0.199384615,-5.87472E-06,2.592,0.044312198,2.592,-1.055436015,2.592,-0.197390705,0.199384615,-3.91089E-05,2.592,0.205447465,2.592,-1.003067017,2.592,-0.366582751,0.199384615,-3.02129E-06,2.592,0.374639511,2.592,-0.982925117,2.592,-0.036255434,0.199384615,-1.12459E-05,2.592,-0.132936597,2.592,-1.031265736,2.592,-0.153078511
